/*** Spectra Vista SIG Data ***/
name= GT1.sig
comm= Resampled spectral data SIG file reprocesed for matching/overlap;Averaged Ref/Tar of files: GD5T1,GD5T2,GD5T3
data=
346.0  366.28  73.04  19.94
356.0  580.02  86.56  14.92
366.0  764.64  98.49  12.88
376.0  1054.72  108.91  10.33
386.0  1321.48  107.02  8.10
396.0  1668.03  140.91  8.45
406.0  2032.56  151.58  7.46
416.0  2484.09  199.71  8.04
426.0  2825.64  228.60  8.09
436.0  3449.00  277.18  8.04
446.0  4016.12  342.15  8.52
456.0  4559.32  419.13  9.19
466.0  5430.31  532.54  9.81
476.0  6200.82  629.72  10.16
486.0  6683.18  711.66  10.65
496.0  7759.25  957.23  12.34
506.0  8620.16  1346.26  15.62
516.0  8958.85  1828.61  20.41
526.0  9944.82  2499.95  25.14
536.0  11306.85  3208.88  28.38
546.0  12443.50  3834.21  30.81
556.0  12537.38  4097.52  32.68
566.0  13373.89  4448.46  33.26
576.0  14717.24  4786.24  32.52
586.0  15778.76  5012.52  31.77
596.0  16643.71  5267.67  31.65
606.0  16939.11  5303.18  31.31
616.0  18066.83  5389.21  29.83
626.0  19907.23  5664.04  28.45
636.0  19564.29  5777.55  29.53
646.0  19659.63  5253.64  26.72
656.0  19192.34  4249.00  22.14
666.0  20282.32  3823.78  18.85
676.0  21596.49  3628.81  16.80
686.0  23461.59  4822.08  20.55
696.0  24117.97  8220.79  34.09
706.0  24329.51  11468.31  47.14
716.0  23886.32  13218.49  55.34
726.0  23086.04  14022.40  60.74
736.0  22569.89  14219.73  63.00
746.0  23814.03  15271.51  64.13
756.0  24266.56  15949.14  65.72
766.0  25278.75  16661.76  65.91
776.0  25925.56  17237.33  66.49
786.0  26060.85  17438.61  66.91
796.0  25580.60  17519.31  68.49
806.0  24835.91  17164.50  69.11
816.0  24700.16  17127.28  69.34
826.0  24523.61  16934.71  69.05
836.0  24895.68  16899.80  67.88
846.0  25503.02  17154.97  67.27
856.0  25926.24  17508.25  67.53
866.0  26083.86  17589.44  67.43
876.0  26142.33  17584.51  67.26
886.0  26278.55  17619.12  67.05
896.0  26059.51  17367.50  66.65
906.0  26042.54  17181.84  65.98
916.0  25872.97  16747.00  64.73
926.0  25848.12  16189.17  62.63
936.0  26639.41  15826.50  59.41
946.0  27323.34  15191.45  55.60
956.0  27983.10  14381.34  51.39
966.0  28580.08  14085.72  49.29
976.0  29061.46  14128.67  48.62
986.0  29600.63  13338.66  45.06
996.0  29854.54  13726.90  45.98
1006.0  29773.67  14124.86  47.44
1016.0  29961.72  14705.66  49.08
1026.0  29958.18  15235.44  50.86
1036.0  29727.72  15656.18  52.67
1046.0  29945.01  16237.48  54.22
1056.0  30102.43  16670.84  55.38
1066.0  30105.99  16867.92  56.03
1076.0  29996.46  16818.60  56.07
1086.0  30084.70  16711.71  55.55
1096.0  30105.40  16425.11  54.56
1106.0  30068.25  16018.33  53.27
1116.0  29868.35  15492.58  51.87
1126.0  29809.45  14776.27  49.57
1136.0  29822.39  13475.93  45.19
1146.0  29809.91  11960.89  40.12
1156.0  29735.93  11021.18  37.06
1166.0  29672.84  10656.28  35.91
1176.0  29648.36  10500.26  35.42
1186.0  29704.47  10410.65  35.05
1196.0  29371.18  10243.81  34.88
1206.0  29121.56  10177.56  34.95
1216.0  28966.90  10212.67  35.26
1226.0  28785.60  10287.72  35.74
1236.0  28657.09  10392.12  36.26
1246.0  28484.90  10457.81  36.71
1256.0  28333.73  10469.28  36.95
1266.0  28154.79  10421.66  37.02
1276.0  28214.44  10389.11  36.82
1286.0  28244.54  10241.96  36.26
1296.0  28080.90  9937.03  35.39
1306.0  27749.33  9462.42  34.10
1316.0  27339.86  8853.96  32.38
1326.0  26940.91  8171.57  30.33
1336.0  26516.39  7496.90  28.27
1346.0  26100.07  6914.09  26.49
1356.0  25456.23  6374.40  25.04
1366.0  25028.25  5852.01  23.38
1376.0  24975.46  5253.41  21.03
1386.0  24740.24  4369.69  17.66
1396.0  24477.47  3474.48  14.19
1406.0  24216.63  2843.41  11.74
1416.0  24200.46  2509.16  10.37
1426.0  24158.30  2340.20  9.69
1436.0  24072.41  2257.46  9.38
1446.0  23956.60  2209.87  9.22
1456.0  23813.94  2193.48  9.21
1466.0  23700.42  2217.97  9.36
1476.0  23484.85  2281.07  9.71
1486.0  23331.72  2403.80  10.30
1496.0  23130.98  2548.08  11.02
1506.0  22945.06  2648.59  11.54
1516.0  22702.48  2729.41  12.02
1526.0  22502.83  2837.36  12.61
1536.0  22328.41  2948.11  13.20
1546.0  22104.85  3058.38  13.84
1556.0  21942.04  3168.03  14.44
1566.0  21758.45  3266.91  15.01
1576.0  21478.18  3367.67  15.68
1586.0  21278.88  3444.65  16.19
1596.0  21035.80  3486.18  16.57
1606.0  20794.20  3546.33  17.05
1616.0  20552.01  3582.83  17.43
1626.0  20323.44  3614.27  17.78
1636.0  20065.83  3635.91  18.12
1646.0  19774.62  3650.34  18.46
1656.0  19480.49  3634.69  18.66
1666.0  19194.30  3592.89  18.72
1676.0  18944.19  3536.62  18.67
1686.0  18931.40  3490.23  18.44
1696.0  18711.77  3392.47  18.13
1706.0  18450.64  3266.63  17.70
1716.0  18035.90  3104.50  17.21
1726.0  17776.34  2971.69  16.72
1736.0  17557.88  2889.55  16.46
1746.0  17326.38  2799.20  16.16
1756.0  17015.40  2674.27  15.72
1766.0  16759.66  2572.64  15.35
1776.0  16615.26  2512.10  15.12
1786.0  16444.78  2457.16  14.94
1796.0  16217.15  2413.02  14.88
1806.0  16004.96  2384.44  14.90
1816.0  15766.24  2352.35  14.92
1826.0  15451.08  2302.74  14.90
1836.0  15063.08  2214.98  14.70
1846.0  14855.31  2106.20  14.18
1856.0  14691.59  1950.30  13.27
1866.0  14522.35  1773.22  12.21
1876.0  14253.69  1475.29  10.35
1886.0  14110.56  1186.74  8.41
1896.0  13808.32  993.20  7.19
1906.0  12793.00  481.55  3.76
1916.0  12616.65  477.99  3.79
1926.0  12521.17  445.41  3.56
1936.0  12420.38  449.46  3.62
1946.0  12399.95  446.81  3.60
1956.0  12267.23  478.72  3.90
1966.0  12255.75  490.89  4.01
1976.0  12167.54  509.32  4.19
1986.0  11984.38  522.74  4.36
1996.0  11804.14  541.52  4.59
2006.0  11722.12  574.80  4.90
2016.0  11520.71  580.01  5.03
2026.0  11331.47  600.37  5.30
2036.0  11153.81  618.46  5.54
2046.0  11015.78  617.50  5.61
2056.0  10803.98  637.14  5.90
2066.0  10617.95  645.67  6.08
2076.0  10467.51  655.75  6.26
2086.0  10367.19  655.19  6.32
2096.0  10196.33  676.24  6.63
2106.0  9977.58  680.12  6.82
2116.0  9951.76  692.13  6.95
2126.0  9831.36  705.07  7.17
2136.0  9625.43  697.19  7.24
2146.0  9388.88  693.50  7.39
2156.0  9207.43  692.09  7.52
2166.0  9064.45  699.19  7.71
2176.0  8911.97  687.21  7.71
2186.0  8812.47  692.83  7.86
2196.0  8746.91  687.08  7.86
2206.0  8717.01  680.42  7.81
2216.0  8632.54  700.66  8.12
2226.0  8558.94  650.08  7.60
2236.0  8436.18  642.81  7.62
2246.0  8282.68  626.00  7.56
2256.0  8199.17  580.61  7.08
2266.0  8120.13  566.14  6.97
2276.0  8038.92  540.45  6.72
2286.0  7958.54  521.19  6.55
2296.0  7926.13  493.76  6.23
2306.0  7675.85  438.55  5.71
2316.0  7429.53  442.07  5.95
2326.0  7404.63  425.44  5.75
2336.0  7366.33  424.65  5.76
2346.0  7276.21  409.23  5.62
2356.0  7132.49  366.39  5.14
2366.0  7038.59  379.40  5.39
2376.0  6898.87  356.86  5.17
2386.0  6807.05  348.36  5.12
2396.0  6685.66  324.16  4.85
2406.0  6574.61  298.64  4.54
2416.0  6463.16  325.94  5.04
2426.0  6354.84  283.39  4.46
2436.0  6210.96  281.28  4.53
2446.0  6104.75  258.22  4.23
2456.0  6017.59  252.07  4.19
2466.0  5854.98  215.51  3.68
2476.0  5727.20  245.16  4.28
2486.0  5577.85  214.01  3.84
2496.0  5547.28  232.53  4.19
2506.0  5804.94  231.66  3.99
