/*** Spectra Vista SIG Data ***/
name= GT1.sig
comm= Resampled spectral data SIG file reprocesed for matching/overlap;Averaged Ref/Tar of files: GD6T1,GD6T2,GD6T3
data=
346.0  350.35  51.81  14.79
356.0  548.37  58.86  10.73
366.0  733.51  65.39  8.91
376.0  1020.12  71.27  6.99
386.0  1277.04  73.25  5.74
396.0  1627.44  95.97  5.90
406.0  1981.59  96.07  4.85
416.0  2426.66  120.43  4.96
426.0  2760.20  132.40  4.80
436.0  3371.96  160.64  4.76
446.0  3932.55  193.61  4.92
456.0  4458.34  217.43  4.88
466.0  5321.78  267.42  5.03
476.0  6071.69  312.78  5.15
486.0  6545.75  339.14  5.18
496.0  7607.89  410.36  5.39
506.0  8454.78  495.16  5.86
516.0  8783.27  576.22  6.56
526.0  9763.90  720.99  7.38
536.0  11118.00  912.19  8.20
546.0  12245.42  1108.98  9.06
556.0  12328.74  1241.64  10.07
566.0  13155.91  1474.82  11.21
576.0  14507.55  1814.45  12.51
586.0  15570.89  2160.30  13.87
596.0  16431.40  2465.82  15.01
606.0  16712.83  2652.57  15.87
616.0  17829.88  3013.30  16.90
626.0  19660.82  3617.34  18.40
636.0  19333.08  3865.34  19.99
646.0  19460.12  3877.34  19.92
656.0  19022.71  3669.31  19.29
666.0  20100.61  3513.76  17.48
676.0  21420.32  3804.84  17.76
686.0  23296.24  5341.66  22.93
696.0  23938.75  7116.27  29.73
706.0  24146.65  8273.09  34.26
716.0  23692.80  8818.42  37.22
726.0  22909.23  9084.69  39.66
736.0  22412.65  9304.22  41.51
746.0  23689.99  10291.32  43.44
756.0  24146.35  10941.73  45.31
766.0  25173.28  11832.47  47.00
776.0  25830.00  12564.29  48.64
786.0  26006.50  13037.39  50.13
796.0  25488.24  13173.74  51.69
806.0  24760.71  13131.91  53.04
816.0  24660.03  13361.53  54.18
826.0  24490.65  13434.79  54.86
836.0  24813.24  13649.60  55.01
846.0  25390.01  14114.89  55.59
856.0  25793.23  14526.79  56.32
866.0  25937.23  14767.44  56.94
876.0  25978.67  14870.21  57.24
886.0  26066.82  14890.31  57.12
896.0  25797.95  14628.94  56.71
906.0  25784.12  14453.27  56.05
916.0  25585.58  14061.96  54.96
926.0  25562.63  13410.86  52.46
936.0  26313.67  12761.01  48.50
946.0  26990.41  11820.93  43.80
956.0  27679.08  10620.23  38.37
966.0  28223.03  10164.93  36.02
976.0  28734.35  10181.66  35.43
986.0  29617.10  9572.95  32.32
996.0  29682.46  9939.09  33.48
1006.0  29574.85  10381.02  35.10
1016.0  29765.57  11016.87  37.01
1026.0  29729.52  11647.80  39.18
1036.0  29515.06  12223.77  41.42
1046.0  29711.45  12898.95  43.41
1056.0  29893.15  13396.47  44.81
1066.0  29897.52  13642.36  45.63
1076.0  29800.79  13591.26  45.61
1086.0  29886.99  13399.56  44.83
1096.0  29929.51  12990.64  43.40
1106.0  29866.48  12476.72  41.78
1116.0  29674.06  11838.17  39.89
1126.0  29628.74  10892.21  36.76
1136.0  29657.68  9255.84  31.21
1146.0  29635.14  7546.07  25.46
1156.0  29553.21  6593.92  22.31
1166.0  29503.66  6245.93  21.17
1176.0  29484.94  6087.09  20.64
1186.0  29538.64  5989.87  20.28
1196.0  29214.89  5868.61  20.09
1206.0  28979.48  5837.56  20.14
1216.0  28818.50  5873.08  20.38
1226.0  28656.56  5953.05  20.77
1236.0  28531.50  6023.76  21.11
1246.0  28361.18  6087.66  21.46
1256.0  28203.68  6117.30  21.69
1266.0  28029.85  6091.10  21.73
1276.0  28088.39  6033.83  21.48
1286.0  28124.94  5868.33  20.87
1296.0  27958.41  5577.01  19.95
1306.0  27627.28  5150.67  18.64
1316.0  27221.07  4642.39  17.05
1326.0  26818.19  4096.00  15.27
1336.0  26392.47  3599.15  13.64
1346.0  25960.75  3186.58  12.27
1356.0  25324.13  2861.62  11.30
1366.0  24931.33  2549.76  10.23
1376.0  24859.99  2196.89  8.84
1386.0  24632.06  1719.48  6.98
1396.0  24380.47  1306.33  5.36
1406.0  24113.09  1039.66  4.31
1416.0  24100.63  908.43  3.77
1426.0  24059.20  840.48  3.49
1436.0  23972.09  809.85  3.38
1446.0  23864.15  785.47  3.29
1456.0  23721.80  773.99  3.26
1466.0  23605.52  782.38  3.31
1476.0  23392.42  800.86  3.42
1486.0  23242.80  848.36  3.65
1496.0  23046.32  923.70  4.01
1506.0  22839.62  952.76  4.17
1516.0  22613.88  965.73  4.27
1526.0  22400.45  995.26  4.44
1536.0  22235.76  1040.75  4.68
1546.0  22015.88  1082.26  4.92
1556.0  21843.28  1128.16  5.16
1566.0  21667.65  1168.75  5.39
1576.0  21395.50  1229.05  5.74
1586.0  21183.04  1255.50  5.93
1596.0  20952.60  1277.05  6.09
1606.0  20718.70  1293.88  6.25
1616.0  20474.49  1319.84  6.45
1626.0  20247.31  1338.09  6.61
1636.0  19983.73  1351.14  6.76
1646.0  19698.46  1357.64  6.89
1656.0  19408.32  1354.53  6.98
1666.0  19124.83  1341.30  7.01
1676.0  18864.06  1317.38  6.98
1686.0  18855.84  1300.53  6.90
1696.0  18634.96  1271.09  6.82
1706.0  18370.29  1225.22  6.67
1716.0  17962.80  1159.81  6.46
1726.0  17703.75  1100.74  6.22
1736.0  17485.45  1057.56  6.05
1746.0  17265.19  1012.76  5.87
1756.0  16948.63  961.55  5.67
1766.0  16694.46  924.73  5.54
1776.0  16556.01  894.83  5.40
1786.0  16371.39  867.73  5.30
1796.0  16140.67  846.13  5.24
1806.0  15938.14  832.36  5.22
1816.0  15678.97  823.34  5.25
1826.0  15392.26  802.87  5.22
1836.0  15002.97  772.31  5.15
1846.0  14761.21  739.28  5.01
1856.0  14556.19  686.61  4.72
1866.0  14407.28  614.55  4.27
1876.0  14196.45  511.02  3.60
1886.0  14007.84  402.74  2.88
1896.0  13666.82  344.49  2.52
1906.0  12741.66  158.31  1.24
1916.0  12564.20  183.03  1.46
1926.0  12460.23  177.41  1.42
1936.0  12370.80  177.29  1.43
1946.0  12350.77  171.25  1.39
1956.0  12226.83  183.19  1.50
1966.0  12235.64  179.05  1.46
1976.0  12109.13  182.32  1.51
1986.0  11959.16  187.85  1.57
1996.0  11765.88  192.77  1.64
2006.0  11671.47  194.82  1.67
2016.0  11489.77  224.88  1.96
2026.0  11296.39  208.82  1.85
2036.0  11118.89  215.69  1.94
2046.0  10967.77  208.94  1.91
2056.0  10772.24  212.17  1.97
2066.0  10586.51  219.68  2.08
2076.0  10437.29  223.14  2.14
2086.0  10345.87  223.42  2.16
2096.0  10147.65  231.91  2.29
2106.0  9962.90  242.70  2.44
2116.0  9924.42  247.97  2.50
2126.0  9819.65  240.10  2.45
2136.0  9628.14  229.15  2.38
2146.0  9347.98  255.22  2.73
2156.0  9207.07  257.66  2.80
2166.0  9045.30  235.58  2.60
2176.0  8862.98  247.95  2.80
2186.0  8784.19  239.94  2.73
2196.0  8710.92  242.88  2.79
2206.0  8676.64  246.16  2.84
2216.0  8628.13  239.45  2.78
2226.0  8514.03  225.07  2.64
2236.0  8471.23  218.01  2.57
2246.0  8264.26  224.36  2.71
2256.0  8190.87  186.47  2.28
2266.0  8126.90  194.80  2.40
2276.0  8029.96  188.40  2.35
2286.0  7925.78  170.28  2.15
2296.0  7890.23  175.31  2.22
2306.0  7669.48  165.13  2.15
2316.0  7409.17  156.11  2.11
2326.0  7407.33  162.76  2.20
2336.0  7352.94  144.12  1.96
2346.0  7306.66  149.51  2.05
2356.0  7113.81  135.04  1.90
2366.0  7033.05  148.40  2.11
2376.0  6902.02  133.36  1.93
2386.0  6802.63  132.99  1.95
2396.0  6698.31  121.84  1.82
2406.0  6580.89  111.09  1.69
2416.0  6486.45  109.53  1.69
2426.0  6373.82  79.31  1.24
2436.0  6209.95  119.19  1.92
2446.0  6115.19  94.91  1.55
2456.0  6033.36  83.44  1.38
2466.0  5852.24  65.77  1.12
2476.0  5728.44  93.64  1.63
2486.0  5584.08  60.76  1.09
2496.0  5488.96  80.28  1.46
2506.0  5754.08  107.40  1.87
