/*** Spectra Vista SIG Data ***/
name= GS2.sig
comm= Resampled spectral data SIG file reprocesed for matching/overlap;Averaged Ref/Tar of files: GD6S4,GD6S5,GD6S6
data=
346.0  350.35  54.36  15.52
356.0  548.37  59.67  10.88
366.0  733.51  63.82  8.70
376.0  1020.12  65.21  6.39
386.0  1277.04  62.69  4.91
396.0  1627.44  78.63  4.83
406.0  1981.59  69.90  3.53
416.0  2426.66  84.80  3.49
426.0  2760.20  90.21  3.27
436.0  3371.96  101.13  3.00
446.0  3932.55  121.04  3.08
456.0  4458.34  131.30  2.95
466.0  5321.78  159.07  2.99
476.0  6071.69  187.52  3.09
486.0  6545.75  199.06  3.04
496.0  7607.89  244.30  3.21
506.0  8454.78  309.73  3.66
516.0  8783.27  392.03  4.46
526.0  9763.90  541.75  5.55
536.0  11118.00  738.43  6.64
546.0  12245.42  933.47  7.62
556.0  12328.74  1056.66  8.57
566.0  13155.91  1260.54  9.58
576.0  14507.55  1542.47  10.63
586.0  15570.89  1827.75  11.74
596.0  16431.40  2080.70  12.66
606.0  16712.83  2264.61  13.55
616.0  17829.88  2568.26  14.40
626.0  19660.82  2822.24  14.35
636.0  19333.08  3069.27  15.88
646.0  19460.12  3376.07  17.35
656.0  19022.71  3390.90  17.83
666.0  20100.61  3292.06  16.38
676.0  21420.32  3469.50  16.20
686.0  23296.24  4437.11  19.05
696.0  23938.75  5817.69  24.30
706.0  24146.65  6784.78  28.10
716.0  23692.80  7247.10  30.59
726.0  22909.23  7460.56  32.57
736.0  22412.65  7675.38  34.25
746.0  23689.99  8561.97  36.14
756.0  24146.35  9011.35  37.32
766.0  25173.28  9836.51  39.08
776.0  25830.00  10437.13  40.41
786.0  26006.50  10851.78  41.73
796.0  25488.24  10762.80  42.23
806.0  24760.71  10695.84  43.20
816.0  24660.03  10914.20  44.26
826.0  24490.65  10971.14  44.80
836.0  24813.24  11280.45  45.46
846.0  25390.01  11837.43  46.62
856.0  25793.23  12186.29  47.25
866.0  25937.23  12492.14  48.16
876.0  25978.67  12638.64  48.65
886.0  26066.82  12649.51  48.53
896.0  25797.95  12461.21  48.30
906.0  25784.12  12348.01  47.89
916.0  25585.58  12077.39  47.20
926.0  25562.63  11617.22  45.45
936.0  26313.67  11213.27  42.61
946.0  26990.41  10601.87  39.28
956.0  27679.08  9669.79  34.94
966.0  28223.03  9367.16  33.19
976.0  28734.35  9357.80  32.57
986.0  29617.10  9250.23  31.23
996.0  29682.46  9657.70  32.54
1006.0  29574.85  10047.11  33.97
1016.0  29765.57  10614.93  35.66
1026.0  29729.52  11123.93  37.42
1036.0  29515.06  11546.72  39.12
1046.0  29711.45  12093.23  40.70
1056.0  29893.15  12530.23  41.92
1066.0  29897.52  12732.35  42.59
1076.0  29800.79  12707.08  42.64
1086.0  29886.99  12563.94  42.04
1096.0  29929.51  12244.87  40.91
1106.0  29866.48  11856.10  39.70
1116.0  29674.06  11313.47  38.13
1126.0  29628.74  10509.66  35.47
1136.0  29657.68  9050.92  30.52
1146.0  29635.14  7413.37  25.02
1156.0  29553.21  6506.80  22.02
1166.0  29503.66  6185.23  20.96
1176.0  29484.94  6052.32  20.53
1186.0  29538.64  5956.15  20.16
1196.0  29214.89  5833.49  19.97
1206.0  28979.48  5812.89  20.06
1216.0  28818.50  5873.32  20.38
1226.0  28656.56  5969.17  20.83
1236.0  28531.50  6060.87  21.24
1246.0  28361.18  6129.16  21.61
1256.0  28203.68  6170.33  21.88
1266.0  28029.85  6156.15  21.96
1276.0  28088.39  6117.76  21.78
1286.0  28124.94  5955.91  21.18
1296.0  27958.41  5658.54  20.24
1306.0  27627.28  5208.68  18.85
1316.0  27221.07  4666.57  17.14
1326.0  26818.19  4075.54  15.20
1336.0  26392.47  3529.55  13.37
1346.0  25960.75  3075.89  11.85
1356.0  25324.13  2706.47  10.69
1366.0  24931.33  2368.83  9.50
1376.0  24859.99  1980.18  7.97
1386.0  24632.06  1472.24  5.98
1396.0  24380.47  1082.41  4.44
1406.0  24113.09  880.33  3.65
1416.0  24100.63  778.53  3.23
1426.0  24059.20  734.98  3.05
1436.0  23972.09  708.96  2.96
1446.0  23864.15  689.01  2.89
1456.0  23721.80  682.17  2.88
1466.0  23605.52  681.56  2.89
1476.0  23392.42  695.41  2.97
1486.0  23242.80  727.16  3.13
1496.0  23046.32  778.08  3.38
1506.0  22839.62  798.86  3.50
1516.0  22613.88  802.57  3.55
1526.0  22400.45  820.65  3.66
1536.0  22235.76  868.40  3.91
1546.0  22015.88  909.54  4.13
1556.0  21843.28  938.85  4.30
1566.0  21667.65  987.10  4.56
1576.0  21395.50  1041.20  4.87
1586.0  21183.04  1073.41  5.07
1596.0  20952.60  1099.65  5.25
1606.0  20718.70  1127.81  5.44
1616.0  20474.49  1148.05  5.61
1626.0  20247.31  1181.42  5.83
1636.0  19983.73  1197.10  5.99
1646.0  19698.46  1208.42  6.13
1656.0  19408.32  1193.66  6.15
1666.0  19124.83  1185.61  6.20
1676.0  18864.06  1167.21  6.19
1686.0  18855.84  1156.43  6.13
1696.0  18634.96  1127.18  6.05
1706.0  18370.29  1089.13  5.93
1716.0  17962.80  1029.34  5.73
1726.0  17703.75  972.77  5.49
1736.0  17485.45  927.68  5.31
1746.0  17265.19  882.28  5.11
1756.0  16948.63  828.01  4.89
1766.0  16694.46  789.93  4.73
1776.0  16556.01  756.52  4.57
1786.0  16371.39  733.21  4.48
1796.0  16140.67  715.24  4.43
1806.0  15938.14  709.21  4.45
1816.0  15678.97  695.19  4.43
1826.0  15392.26  684.24  4.45
1836.0  15002.97  654.64  4.36
1846.0  14761.21  640.53  4.34
1856.0  14556.19  605.10  4.16
1866.0  14407.28  551.45  3.83
1876.0  14196.45  429.03  3.02
1886.0  14007.84  362.65  2.59
1896.0  13666.82  312.82  2.29
1906.0  12741.66  234.63  1.84
1916.0  12564.20  194.60  1.55
1926.0  12460.23  198.12  1.59
1936.0  12370.80  194.19  1.57
1946.0  12350.77  202.82  1.64
1956.0  12226.83  194.59  1.59
1966.0  12235.64  218.13  1.78
1976.0  12109.13  203.70  1.68
1986.0  11959.16  220.90  1.85
1996.0  11765.88  226.86  1.93
2006.0  11671.47  236.65  2.03
2016.0  11489.77  244.65  2.13
2026.0  11296.39  226.70  2.01
2036.0  11118.89  231.96  2.09
2046.0  10967.77  248.71  2.27
2056.0  10772.24  250.46  2.33
2066.0  10586.51  241.60  2.28
2076.0  10437.29  248.09  2.38
2086.0  10345.87  245.02  2.37
2096.0  10147.65  243.05  2.40
2106.0  9962.90  245.63  2.47
2116.0  9924.42  263.24  2.65
2126.0  9819.65  258.73  2.63
2136.0  9628.14  244.06  2.53
2146.0  9347.98  247.35  2.65
2156.0  9207.07  229.51  2.49
2166.0  9045.30  245.45  2.71
2176.0  8862.98  237.37  2.68
2186.0  8784.19  238.27  2.71
2196.0  8710.92  240.09  2.76
2206.0  8676.64  210.81  2.43
2216.0  8628.13  232.45  2.69
2226.0  8514.03  219.49  2.58
2236.0  8471.23  233.09  2.75
2246.0  8264.26  211.86  2.56
2256.0  8190.87  203.06  2.48
2266.0  8126.90  185.16  2.28
2276.0  8029.96  198.64  2.47
2286.0  7925.78  177.54  2.24
2296.0  7890.23  171.96  2.18
2306.0  7669.48  155.33  2.03
2316.0  7409.17  158.95  2.15
2326.0  7407.33  143.57  1.94
2336.0  7352.94  140.69  1.91
2346.0  7306.66  130.98  1.79
2356.0  7113.81  120.19  1.69
2366.0  7033.05  119.96  1.71
2376.0  6902.02  132.23  1.92
2386.0  6802.63  108.08  1.59
2396.0  6698.31  137.17  2.05
2406.0  6580.89  99.29  1.51
2416.0  6486.45  113.04  1.74
2426.0  6373.82  81.42  1.28
2436.0  6209.95  105.80  1.70
2446.0  6115.19  78.07  1.28
2456.0  6033.36  75.05  1.24
2466.0  5852.24  78.97  1.35
2476.0  5728.44  95.87  1.67
2486.0  5584.08  85.01  1.52
2496.0  5488.96  84.64  1.54
2506.0  5754.08  53.76  0.93
