/*** Spectra Vista SIG Data ***/
name= RT.sig
comm= Resampled spectral data SIG file reprocesed for matching/overlap;Averaged Ref/Tar of files: RD2T4,RD2T5,RD2T6
data=
346.0  420.42  57.33  13.64
356.0  663.57  66.50  10.02
366.0  883.24  72.68  8.23
376.0  1209.41  77.59  6.42
386.0  1512.12  78.82  5.21
396.0  1939.08  100.43  5.18
406.0  2347.75  99.61  4.24
416.0  2888.47  120.12  4.16
426.0  3324.22  127.82  3.85
436.0  4071.81  141.55  3.48
446.0  4787.71  167.46  3.50
456.0  5509.08  187.45  3.40
466.0  6625.67  217.94  3.29
476.0  7638.97  254.70  3.33
486.0  8386.32  261.05  3.11
496.0  9770.37  306.06  3.13
506.0  10951.45  364.63  3.33
516.0  11592.19  409.62  3.53
526.0  12947.23  472.31  3.65
536.0  14658.42  553.30  3.77
546.0  16086.21  643.45  4.00
556.0  16393.76  695.07  4.24
566.0  17614.92  816.46  4.64
576.0  19405.55  1010.70  5.21
586.0  20754.12  1259.62  6.07
596.0  21845.32  1574.27  7.21
606.0  22237.75  1855.90  8.35
616.0  23619.94  2188.05  9.26
626.0  26127.31  2789.78  10.68
636.0  25807.94  3057.47  11.85
646.0  26096.04  2539.25  9.73
656.0  25653.98  2278.71  8.88
666.0  27070.83  2130.24  7.87
676.0  28556.98  2075.26  7.27
686.0  30665.50  3156.73  10.29
696.0  31370.04  6405.00  20.42
706.0  31674.64  9341.11  29.49
716.0  31334.59  10877.12  34.71
726.0  30632.29  11591.54  37.84
736.0  30339.25  11741.46  38.70
746.0  32104.78  12556.34  39.11
756.0  32673.27  13112.36  40.13
766.0  33749.76  13580.31  40.24
776.0  34270.16  13939.62  40.68
786.0  34224.76  13973.21  40.83
796.0  33430.43  14057.29  42.05
806.0  32459.07  13727.31  42.29
816.0  32317.43  13693.71  42.37
826.0  32210.61  13561.10  42.10
836.0  32750.21  13497.51  41.21
846.0  33600.53  13636.98  40.59
856.0  34313.74  13948.51  40.65
866.0  34661.41  13961.91  40.28
876.0  34859.23  13904.89  39.89
886.0  35053.76  13861.08  39.54
896.0  34749.08  13568.63  39.05
906.0  34667.33  13337.21  38.47
916.0  34320.56  12934.51  37.69
926.0  34224.36  12464.74  36.42
936.0  35065.15  12200.35  34.79
946.0  35832.89  11677.35  32.59
956.0  36586.18  11093.26  30.32
966.0  37174.59  10828.36  29.13
976.0  37894.31  10739.74  28.34
986.0  39009.04  11213.18  28.75
996.0  39434.53  11288.55  28.63
1006.0  39450.96  11527.51  29.22
1016.0  39755.43  11972.83  30.12
1026.0  39846.85  12360.20  31.02
1036.0  39722.09  12702.57  31.98
1046.0  40090.93  13151.64  32.80
1056.0  40350.67  13489.32  33.43
1066.0  40393.87  13662.98  33.82
1076.0  40272.43  13648.70  33.89
1086.0  40402.93  13581.59  33.62
1096.0  40444.64  13361.07  33.04
1106.0  40383.05  13076.00  32.38
1116.0  40156.20  12702.54  31.63
1126.0  40066.74  12156.91  30.34
1136.0  40069.92  11184.75  27.91
1146.0  40032.90  10037.77  25.07
1156.0  39878.21  9266.39  23.24
1166.0  39738.21  8934.62  22.48
1176.0  39691.09  8753.66  22.05
1186.0  39751.89  8645.68  21.75
1196.0  39300.88  8484.16  21.59
1206.0  38966.74  8420.84  21.61
1216.0  38739.07  8455.41  21.83
1226.0  38474.35  8530.62  22.17
1236.0  38317.24  8616.93  22.49
1246.0  38098.05  8654.07  22.72
1256.0  37870.80  8650.13  22.84
1266.0  37639.98  8628.46  22.92
1276.0  37728.87  8611.05  22.82
1286.0  37778.91  8498.29  22.49
1296.0  37556.99  8278.34  22.04
1306.0  37134.58  7897.22  21.27
1316.0  36632.08  7409.47  20.23
1326.0  36144.72  6843.17  18.93
1336.0  35632.39  6275.09  17.61
1346.0  35164.86  5769.12  16.41
1356.0  34491.20  5303.17  15.38
1366.0  34006.97  4870.08  14.32
1376.0  33906.86  4349.62  12.83
1386.0  33628.72  3557.82  10.58
1396.0  33258.37  2720.20  8.18
1406.0  32886.09  2138.57  6.50
1416.0  32824.39  1821.38  5.55
1426.0  32724.02  1662.37  5.08
1436.0  32606.02  1586.34  4.87
1446.0  32448.91  1556.09  4.80
1456.0  32242.99  1540.50  4.78
1466.0  32094.31  1561.53  4.87
1476.0  31798.89  1620.23  5.10
1486.0  31599.60  1729.16  5.47
1496.0  31314.11  1854.62  5.92
1506.0  31081.85  1936.76  6.23
1516.0  30763.26  2023.93  6.58
1526.0  30465.69  2119.09  6.96
1536.0  30228.99  2178.07  7.21
1546.0  29922.88  2282.10  7.63
1556.0  29717.58  2401.63  8.08
1566.0  29483.58  2492.51  8.45
1576.0  29112.05  2579.77  8.86
1586.0  28830.27  2646.78  9.18
1596.0  28516.45  2699.83  9.47
1606.0  28200.40  2751.22  9.76
1616.0  27863.53  2790.65  10.02
1626.0  27548.26  2821.74  10.24
1636.0  27192.93  2850.83  10.48
1646.0  26810.12  2868.50  10.70
1656.0  26422.72  2852.85  10.80
1666.0  26041.67  2822.09  10.84
1676.0  25689.64  2778.50  10.82
1686.0  25672.34  2734.87  10.65
1696.0  25362.16  2646.93  10.44
1706.0  24981.22  2542.95  10.18
1716.0  24409.73  2407.48  9.86
1726.0  24060.90  2286.59  9.50
1736.0  23769.09  2222.99  9.35
1746.0  23476.20  2161.14  9.21
1756.0  23059.21  2059.83  8.93
1766.0  22706.53  1976.58  8.70
1776.0  22517.74  1929.53  8.57
1786.0  22279.16  1889.25  8.48
1796.0  22002.42  1854.62  8.43
1806.0  21754.83  1833.04  8.43
1816.0  21471.52  1812.79  8.44
1826.0  21106.33  1771.09  8.39
1836.0  20630.46  1711.90  8.30
1846.0  20277.30  1612.25  7.95
1856.0  19915.32  1470.41  7.38
1866.0  19842.11  1337.46  6.74
1876.0  19574.20  1096.28  5.60
1886.0  19300.95  859.43  4.45
1896.0  18869.28  705.14  3.74
1906.0  17677.14  339.49  1.92
1916.0  17466.72  346.23  1.98
1926.0  17252.11  329.64  1.91
1936.0  17128.11  323.62  1.89
1946.0  17085.99  316.43  1.85
1956.0  16903.34  334.03  1.98
1966.0  16889.49  343.20  2.03
1976.0  16746.52  355.21  2.12
1986.0  16522.03  360.82  2.18
1996.0  16276.91  378.16  2.32
2006.0  16141.49  404.90  2.51
2016.0  15900.14  413.22  2.60
2026.0  15625.70  421.82  2.70
2036.0  15381.00  436.38  2.84
2046.0  15174.91  445.82  2.94
2056.0  14917.43  444.68  2.98
2066.0  14651.08  442.67  3.02
2076.0  14441.28  462.46  3.20
2086.0  14317.79  473.36  3.31
2096.0  14066.90  483.39  3.44
2106.0  13809.17  479.57  3.47
2116.0  13746.08  511.23  3.72
2126.0  13591.09  512.64  3.77
2136.0  13336.96  512.08  3.84
2146.0  13004.43  530.11  4.08
2156.0  12779.65  531.90  4.16
2166.0  12550.12  518.44  4.13
2176.0  12346.60  515.35  4.17
2186.0  12230.19  525.46  4.30
2196.0  12112.24  529.34  4.37
2206.0  12053.32  520.76  4.32
2216.0  11952.13  524.79  4.39
2226.0  11833.11  499.35  4.22
2236.0  11728.36  498.42  4.25
2246.0  11500.68  456.04  3.97
2256.0  11354.47  428.70  3.78
2266.0  11242.70  418.22  3.72
2276.0  11135.26  381.49  3.43
2286.0  11054.55  347.98  3.15
2296.0  10965.70  334.43  3.05
2306.0  10644.11  295.47  2.78
2316.0  10289.49  291.27  2.83
2326.0  10282.58  316.74  3.08
2336.0  10225.54  280.29  2.74
2346.0  10124.99  276.12  2.73
2356.0  9879.68  249.99  2.53
2366.0  9799.70  256.98  2.62
2376.0  9591.68  227.70  2.37
2386.0  9473.46  216.13  2.28
2396.0  9309.21  234.35  2.52
2406.0  9155.50  212.19  2.32
2416.0  9004.46  205.72  2.28
2426.0  8876.18  176.95  1.99
2436.0  8680.39  201.93  2.33
2446.0  8509.57  175.50  2.06
2456.0  8410.75  172.68  2.05
2466.0  8153.13  151.97  1.86
2476.0  7956.29  174.31  2.19
2486.0  7783.29  145.54  1.87
2496.0  7662.72  140.19  1.83
2506.0  8061.90  164.07  2.04
