/*** Spectra Vista SIG Data ***/
name= B.sig
comm= Resampled spectral data SIG file reprocesed for matching/overlap;Averaged Ref/Tar of files: GD3B1,GD3B2,GD3B3
data=
346.0  598.78  110.41  18.44
356.0  924.17  126.18  13.65
366.0  1234.61  134.47  10.89
376.0  1691.57  143.74  8.50
386.0  2110.32  140.24  6.65
396.0  2699.64  181.56  6.73
406.0  3258.06  176.77  5.43
416.0  3980.12  220.79  5.55
426.0  4560.62  241.15  5.29
436.0  5560.57  280.19  5.04
446.0  6459.13  342.05  5.30
456.0  7345.42  422.59  5.75
466.0  8824.96  534.85  6.06
476.0  10121.58  619.53  6.12
486.0  10943.49  705.34  6.45
496.0  12761.25  937.33  7.35
506.0  14311.81  1375.47  9.61
516.0  15112.04  1984.76  13.13
526.0  16957.18  2860.53  16.87
536.0  19355.60  3756.57  19.41
546.0  21330.59  4446.59  20.85
556.0  21581.55  4745.06  21.99
566.0  23226.44  5121.87  22.05
576.0  25810.52  5454.24  21.13
586.0  27755.51  5605.44  20.20
596.0  29194.08  5713.74  19.57
606.0  29534.45  5618.63  19.02
616.0  31318.23  5587.98  17.84
626.0  34410.58  5619.71  16.33
636.0  34069.21  5758.67  16.90
646.0  34679.65  5322.23  15.35
656.0  34069.42  4053.70  11.90
666.0  35802.93  3540.67  9.89
676.0  37841.78  3289.47  8.69
686.0  40854.13  4627.35  11.33
696.0  41747.28  9063.61  21.71
706.0  41971.06  13451.20  32.05
716.0  41223.34  15796.36  38.32
726.0  40067.78  16782.27  41.88
736.0  39511.29  17071.64  43.21
746.0  41985.01  18460.88  43.97
756.0  42844.63  19048.78  44.46
766.0  44461.06  19963.09  44.90
776.0  45318.27  20526.26  45.29
786.0  45304.05  20737.19  45.77
796.0  44083.17  20513.95  46.53
806.0  42558.06  20038.04  47.08
816.0  42205.19  19984.86  47.35
826.0  41881.04  19604.51  46.81
836.0  42513.48  19488.22  45.84
846.0  43677.73  19865.38  45.48
856.0  44639.93  20256.01  45.38
866.0  45173.91  20402.97  45.17
876.0  45452.84  20352.46  44.78
886.0  45709.40  20234.21  44.27
896.0  45235.90  19775.68  43.72
906.0  45023.00  19360.15  43.00
916.0  44495.20  18690.95  42.01
926.0  44269.25  17783.82  40.17
936.0  45413.73  17083.65  37.62
946.0  46396.61  16091.67  34.68
956.0  47429.46  14958.06  31.54
966.0  48326.20  14510.87  30.03
976.0  49108.57  14278.85  29.08
986.0  50490.65  16278.99  32.24
996.0  50607.35  16865.45  33.33
1006.0  50486.13  17475.16  34.61
1016.0  50803.76  18257.92  35.94
1026.0  50772.47  19036.33  37.49
1036.0  50488.61  19665.46  38.95
1046.0  50910.83  20503.28  40.27
1056.0  51254.42  21167.70  41.30
1066.0  51336.62  21479.54  41.84
1076.0  51162.22  21432.90  41.89
1086.0  51303.09  21250.37  41.42
1096.0  51344.30  20808.83  40.53
1106.0  51211.90  20204.22  39.45
1116.0  50831.30  19428.50  38.22
1126.0  50674.44  18367.75  36.25
1136.0  50616.91  16543.84  32.68
1146.0  50531.75  14473.67  28.64
1156.0  50358.44  13163.31  26.14
1166.0  50175.54  12638.37  25.19
1176.0  50092.24  12429.71  24.81
1186.0  50160.75  12303.21  24.53
1196.0  49589.85  12067.15  24.33
1206.0  49136.73  11977.64  24.38
1216.0  48856.16  12014.21  24.59
1226.0  48538.40  12100.73  24.93
1236.0  48332.55  12212.27  25.27
1246.0  48044.92  12264.41  25.53
1256.0  47756.51  12289.62  25.73
1266.0  47442.71  12242.26  25.80
1276.0  47551.66  12187.89  25.63
1286.0  47606.03  11993.42  25.19
1296.0  47326.24  11611.37  24.53
1306.0  46758.50  11014.07  23.56
1316.0  46095.57  10275.16  22.29
1326.0  45453.96  9449.62  20.79
1336.0  44765.54  8630.06  19.28
1346.0  44091.89  7937.31  18.00
1356.0  43065.01  7314.99  16.99
1366.0  42453.65  6719.59  15.83
1376.0  42338.17  6074.01  14.35
1386.0  41985.88  5096.50  12.14
1396.0  41548.36  4093.55  9.85
1406.0  41106.41  3381.58  8.23
1416.0  41061.27  2995.15  7.29
1426.0  40954.01  2791.56  6.82
1436.0  40796.14  2689.57  6.59
1446.0  40594.32  2647.27  6.52
1456.0  40330.62  2626.59  6.51
1466.0  40125.74  2647.79  6.60
1476.0  39754.25  2709.57  6.82
1486.0  39484.92  2834.68  7.18
1496.0  39151.21  2998.02  7.66
1506.0  38800.67  3105.01  8.00
1516.0  38385.61  3196.05  8.33
1526.0  38038.86  3279.43  8.62
1536.0  37757.73  3358.82  8.90
1546.0  37407.06  3442.07  9.20
1556.0  37137.95  3571.22  9.62
1566.0  36823.70  3725.81  10.12
1576.0  36372.01  3842.03  10.56
1586.0  36009.48  3911.87  10.86
1596.0  35619.37  3961.58  11.12
1606.0  35232.08  4015.12  11.40
1616.0  34829.65  4056.19  11.65
1626.0  34452.68  4092.24  11.88
1636.0  34007.58  4113.69  12.10
1646.0  33523.68  4111.97  12.27
1656.0  33037.62  4087.98  12.37
1666.0  32548.04  4039.05  12.41
1676.0  32123.29  3975.02  12.37
1686.0  32117.51  3924.76  12.22
1696.0  31764.57  3830.34  12.06
1706.0  31316.98  3696.50  11.80
1716.0  30611.05  3517.76  11.49
1726.0  30177.81  3372.85  11.18
1736.0  29812.17  3270.17  10.97
1746.0  29439.81  3180.16  10.80
1756.0  28928.41  3042.57  10.52
1766.0  28491.94  2934.09  10.30
1776.0  28263.25  2864.87  10.14
1786.0  27973.79  2800.80  10.01
1796.0  27612.53  2747.90  9.95
1806.0  27286.01  2717.05  9.96
1816.0  26879.26  2677.30  9.96
1826.0  26408.56  2626.59  9.95
1836.0  25765.82  2535.01  9.84
1846.0  25402.19  2435.50  9.59
1856.0  25067.72  2307.57  9.21
1866.0  24868.79  2135.40  8.59
1876.0  24488.38  1788.29  7.30
1886.0  24233.30  1481.84  6.11
1896.0  23683.96  1253.45  5.29
1906.0  22096.75  762.14  3.45
1916.0  21802.32  727.94  3.34
1926.0  21588.87  709.82  3.29
1936.0  21449.43  718.85  3.35
1946.0  21420.23  719.24  3.36
1956.0  21201.75  746.09  3.52
1966.0  21198.12  767.67  3.62
1976.0  21006.67  798.28  3.80
1986.0  20732.55  808.62  3.90
1996.0  20450.49  839.44  4.10
2006.0  20269.19  866.74  4.28
2016.0  19957.87  898.11  4.50
2026.0  19629.85  906.79  4.62
2036.0  19319.95  923.35  4.78
2046.0  19073.35  935.76  4.91
2056.0  18736.02  946.22  5.05
2066.0  18425.00  936.83  5.08
2076.0  18163.31  969.95  5.34
2086.0  17998.96  985.22  5.47
2096.0  17698.67  981.85  5.55
2106.0  17393.37  1000.05  5.75
2116.0  17301.34  1026.06  5.93
2126.0  17117.10  1038.80  6.07
2136.0  16805.93  1039.38  6.18
2146.0  16338.81  1034.27  6.33
2156.0  16108.43  1023.44  6.35
2166.0  15818.08  1027.75  6.50
2176.0  15571.16  1023.35  6.57
2186.0  15407.91  1013.54  6.58
2196.0  15291.27  1016.27  6.65
2206.0  15252.10  1019.28  6.68
2216.0  15137.72  1025.16  6.77
2226.0  14957.58  974.85  6.52
2236.0  14828.49  953.47  6.43
2246.0  14572.63  924.46  6.34
2256.0  14413.52  865.38  6.00
2266.0  14283.01  854.14  5.98
2276.0  14142.85  806.30  5.70
2286.0  14066.30  775.73  5.51
2296.0  13956.39  745.12  5.34
2306.0  13536.25  673.59  4.98
2316.0  13130.37  649.44  4.95
2326.0  13082.91  651.26  4.98
2336.0  13030.52  629.03  4.83
2346.0  12874.44  626.58  4.87
2356.0  12605.38  578.56  4.59
2366.0  12490.11  577.79  4.63
2376.0  12262.88  540.67  4.41
2386.0  12077.58  531.69  4.40
2396.0  11871.57  520.90  4.39
2406.0  11728.43  479.61  4.09
2416.0  11508.86  479.93  4.17
2426.0  11344.58  437.20  3.85
2436.0  11091.32  451.50  4.07
2446.0  10929.32  403.48  3.69
2456.0  10711.77  393.85  3.68
2466.0  10484.26  359.29  3.43
2476.0  10216.57  363.64  3.56
2486.0  9941.47  320.34  3.22
2496.0  9864.73  321.29  3.26
2506.0  10308.86  299.08  2.90
