/*** Spectra Vista SIG Data ***/
name= RS4.sig
comm= Resampled spectral data SIG file reprocesed for matching/overlap;Averaged Ref/Tar of files: RD4S10,RD4S11,RD4S12
data=
346.0  300.98  84.51  28.08
356.0  463.72  97.66  21.06
366.0  636.68  108.08  16.98
376.0  885.46  106.97  12.08
386.0  1110.03  105.95  9.54
396.0  1411.36  130.23  9.23
406.0  1724.09  118.24  6.86
416.0  2114.15  138.86  6.57
426.0  2411.20  143.49  5.95
436.0  2948.34  155.77  5.28
446.0  3434.75  174.91  5.09
456.0  3900.43  181.90  4.66
466.0  4655.33  209.29  4.50
476.0  5313.35  234.62  4.42
486.0  5742.38  229.03  3.99
496.0  6668.62  260.69  3.91
506.0  7414.48  293.20  3.95
516.0  7736.05  310.15  4.01
526.0  8614.28  345.33  4.01
536.0  9808.20  396.28  4.04
546.0  10787.45  453.49  4.20
556.0  10874.02  477.58  4.39
566.0  11620.97  565.05  4.86
576.0  12831.36  757.27  5.90
586.0  13800.83  1085.20  7.86
596.0  14570.41  1554.80  10.67
606.0  14819.23  2172.68  14.66
616.0  15785.73  3140.10  19.89
626.0  17422.26  4395.12  25.23
636.0  17172.91  5374.29  31.30
646.0  17313.58  5984.33  34.56
656.0  16958.91  6189.10  36.49
666.0  17952.46  6091.51  33.93
676.0  19107.41  6367.55  33.33
686.0  20744.30  9205.12  44.37
696.0  21302.17  13435.03  63.07
706.0  21485.54  15563.38  72.44
716.0  21106.17  16162.10  76.58
726.0  20444.90  16031.89  78.42
736.0  20072.78  15820.15  78.81
746.0  21269.54  16965.92  79.77
756.0  21715.17  17351.42  79.90
766.0  22630.30  18352.44  81.10
776.0  23222.43  18989.11  81.77
786.0  23351.40  19311.67  82.70
796.0  22865.98  18872.52  82.54
806.0  22206.84  18409.56  82.90
816.0  22105.85  18356.31  83.04
826.0  21970.10  18034.91  82.09
836.0  22256.75  18002.07  80.88
846.0  22764.08  18416.56  80.90
856.0  23134.08  18579.29  80.31
866.0  23280.52  18650.46  80.11
876.0  23337.25  18578.94  79.61
886.0  23426.87  18386.35  78.48
896.0  23219.08  17949.97  77.31
906.0  23187.39  17679.85  76.25
916.0  23019.76  17244.66  74.91
926.0  22972.36  16662.65  72.53
936.0  23654.47  16316.09  68.98
946.0  24257.59  15798.85  65.13
956.0  24792.19  15023.51  60.60
966.0  25310.85  14755.42  58.30
976.0  25805.97  14786.75  57.30
986.0  26419.21  14459.38  54.73
996.0  26647.14  14944.33  56.08
1006.0  26606.80  15302.64  57.51
1016.0  26773.23  15847.81  59.19
1026.0  26768.69  16323.82  60.98
1036.0  26610.23  16658.80  62.60
1046.0  26817.96  17214.37  64.19
1056.0  26974.32  17655.45  65.45
1066.0  27001.14  17847.23  66.10
1076.0  26907.02  17808.53  66.19
1086.0  27000.17  17698.85  65.55
1096.0  27021.97  17428.62  64.50
1106.0  26988.71  17054.03  63.19
1116.0  26827.19  16530.09  61.62
1126.0  26782.22  15794.21  58.97
1136.0  26806.48  14452.70  53.91
1146.0  26783.32  12879.57  48.09
1156.0  26689.55  11850.85  44.40
1166.0  26634.11  11434.92  42.93
1176.0  26621.63  11235.66  42.20
1186.0  26686.27  11094.15  41.57
1196.0  26376.31  10863.56  41.19
1206.0  26163.12  10770.91  41.17
1216.0  26024.95  10813.29  41.55
1226.0  25846.71  10924.31  42.27
1236.0  25752.82  11038.51  42.86
1246.0  25614.66  11101.10  43.34
1256.0  25475.83  11126.65  43.68
1266.0  25314.04  11101.28  43.85
1276.0  25373.13  11069.23  43.63
1286.0  25403.93  10934.14  43.04
1296.0  25257.97  10605.09  41.99
1306.0  24949.96  10086.70  40.43
1316.0  24591.02  9429.05  38.34
1326.0  24232.82  8679.81  35.82
1336.0  23855.58  7909.53  33.16
1346.0  23503.73  7249.29  30.84
1356.0  22973.78  6650.78  28.95
1366.0  22619.97  6087.31  26.91
1376.0  22547.29  5421.76  24.05
1386.0  22336.04  4357.59  19.51
1396.0  22099.31  3289.50  14.89
1406.0  21849.51  2549.87  11.67
1416.0  21811.39  2151.86  9.87
1426.0  21760.87  1952.25  8.97
1436.0  21688.98  1852.94  8.54
1446.0  21571.09  1807.97  8.38
1456.0  21448.73  1786.78  8.33
1466.0  21345.12  1810.32  8.48
1476.0  21146.04  1870.91  8.85
1486.0  21006.72  1998.32  9.51
1496.0  20823.92  2160.98  10.38
1506.0  20651.18  2272.50  11.00
1516.0  20455.77  2356.74  11.52
1526.0  20257.55  2474.65  12.22
1536.0  20096.43  2601.60  12.95
1546.0  19894.80  2732.74  13.74
1556.0  19746.35  2845.11  14.41
1566.0  19580.39  2946.90  15.05
1576.0  19339.02  3062.85  15.84
1586.0  19146.44  3151.54  16.46
1596.0  18933.87  3211.07  16.96
1606.0  18729.11  3274.15  17.48
1616.0  18504.97  3332.05  18.01
1626.0  18305.91  3385.48  18.49
1636.0  18069.01  3415.95  18.91
1646.0  17818.51  3412.13  19.15
1656.0  17552.22  3387.06  19.30
1666.0  17298.94  3344.81  19.34
1676.0  17076.69  3295.46  19.30
1686.0  17060.73  3253.43  19.07
1696.0  16861.46  3160.55  18.74
1706.0  16611.03  3035.98  18.28
1716.0  16237.09  2876.91  17.72
1726.0  15996.13  2739.19  17.12
1736.0  15803.28  2658.96  16.83
1746.0  15603.66  2572.19  16.48
1756.0  15326.26  2447.74  15.97
1766.0  15088.96  2344.63  15.54
1776.0  14960.65  2294.81  15.34
1786.0  14796.56  2239.17  15.13
1796.0  14599.28  2204.80  15.10
1806.0  14432.56  2185.24  15.14
1816.0  14220.87  2166.43  15.23
1826.0  13958.76  2128.65  15.25
1836.0  13625.22  2068.24  15.18
1846.0  13402.12  2003.20  14.95
1856.0  13193.00  1900.05  14.40
1866.0  13077.36  1629.41  12.46
1876.0  12862.98  1233.45  9.59
1886.0  12714.37  937.88  7.38
1896.0  12428.70  782.97  6.30
1906.0  11584.61  442.22  3.82
1916.0  11419.95  412.27  3.61
1926.0  11288.15  390.89  3.46
1936.0  11206.69  386.64  3.45
1946.0  11198.13  394.83  3.53
1956.0  11063.98  397.79  3.60
1966.0  11075.86  414.30  3.74
1976.0  10974.82  439.57  4.01
1986.0  10831.42  442.45  4.08
1996.0  10659.46  472.52  4.43
2006.0  10562.82  490.07  4.64
2016.0  10412.68  503.93  4.84
2026.0  10222.99  514.78  5.04
2036.0  10070.22  528.89  5.25
2046.0  9949.56  542.84  5.46
2056.0  9753.19  558.60  5.73
2066.0  9593.30  553.96  5.77
2076.0  9443.55  575.04  6.09
2086.0  9354.07  590.98  6.32
2096.0  9210.37  585.59  6.36
2106.0  9026.55  596.98  6.61
2116.0  8990.49  622.54  6.92
2126.0  8894.38  637.05  7.16
2136.0  8704.97  630.62  7.24
2146.0  8486.07  637.48  7.51
2156.0  8343.29  650.22  7.79
2166.0  8183.41  633.97  7.75
2176.0  8051.70  640.60  7.96
2186.0  7958.55  659.45  8.29
2196.0  7908.78  645.09  8.16
2206.0  7862.30  650.96  8.28
2216.0  7807.07  653.10  8.37
2226.0  7710.20  630.28  8.17
2236.0  7642.35  607.74  7.95
2246.0  7476.81  573.55  7.67
2256.0  7391.85  555.98  7.52
2266.0  7320.92  527.98  7.21
2276.0  7252.25  481.14  6.63
2286.0  7189.78  464.75  6.46
2296.0  7136.98  442.43  6.20
2306.0  6908.51  393.63  5.70
2316.0  6711.36  387.73  5.78
2326.0  6670.62  385.45  5.78
2336.0  6631.35  367.55  5.54
2346.0  6585.90  347.40  5.27
2356.0  6421.23  339.56  5.29
2366.0  6363.62  348.16  5.47
2376.0  6263.23  312.49  4.99
2386.0  6151.80  317.17  5.16
2396.0  6055.25  300.38  4.96
2406.0  5958.69  285.60  4.79
2416.0  5857.57  265.55  4.53
2426.0  5766.53  234.96  4.07
2436.0  5600.60  244.66  4.37
2446.0  5521.33  225.09  4.08
2456.0  5420.45  238.78  4.41
2466.0  5315.59  196.09  3.69
2476.0  5191.59  182.64  3.52
2486.0  5020.73  183.75  3.66
2496.0  4966.51  212.49  4.28
2506.0  5248.23  197.33  3.76
