/*** Spectra Vista SIG Data ***/
name= GS3.sig
comm= Resampled spectral data SIG file reprocesed for matching/overlap;Averaged Ref/Tar of files: GD5S7,GD5S8,GD5S9
data=
346.0  366.28  98.31  26.84
356.0  580.02  109.42  18.86
366.0  764.64  119.75  15.66
376.0  1054.72  133.54  12.66
386.0  1321.48  134.44  10.17
396.0  1668.03  182.76  10.96
406.0  2032.56  201.48  9.91
416.0  2484.09  264.82  10.66
426.0  2825.64  297.81  10.54
436.0  3449.00  359.13  10.41
446.0  4016.12  442.92  11.03
456.0  4559.32  540.45  11.85
466.0  5430.31  700.00  12.89
476.0  6200.82  812.94  13.11
486.0  6683.18  932.79  13.96
496.0  7759.25  1271.43  16.39
506.0  8620.16  1717.98  19.93
516.0  8958.85  2161.10  24.12
526.0  9944.82  2787.58  28.03
536.0  11306.85  3507.74  31.02
546.0  12443.50  4166.52  33.48
556.0  12537.38  4461.01  35.58
566.0  13373.89  4978.32  37.22
576.0  14717.24  5618.38  38.18
586.0  15778.76  6126.78  38.83
596.0  16643.71  6510.77  39.12
606.0  16939.11  6645.37  39.23
616.0  18066.83  6996.75  38.73
626.0  19907.23  7367.49  37.01
636.0  19564.29  7488.50  38.28
646.0  19659.63  7654.58  38.94
656.0  19192.34  7051.56  36.74
666.0  20282.32  6375.62  31.43
676.0  21596.49  6247.62  28.93
686.0  23461.59  7846.16  33.44
696.0  24117.97  11012.78  45.66
706.0  24329.51  13240.34  54.42
716.0  23886.32  14104.24  59.05
726.0  23086.04  14299.78  61.94
736.0  22569.89  14387.09  63.74
746.0  23814.03  15595.92  65.49
756.0  24266.56  16077.82  66.26
766.0  25278.75  17085.60  67.59
776.0  25925.56  17750.97  68.47
786.0  26060.85  18111.31  69.50
796.0  25580.60  17812.00  69.63
806.0  24835.91  17456.85  70.29
816.0  24700.16  17495.52  70.83
826.0  24523.61  17342.75  70.72
836.0  24895.68  17534.97  70.43
846.0  25503.02  18068.62  70.85
856.0  25926.24  18396.76  70.96
866.0  26083.86  18576.37  71.22
876.0  26142.33  18628.67  71.26
886.0  26278.55  18581.22  70.71
896.0  26059.51  18262.00  70.08
906.0  26042.54  18058.45  69.34
916.0  25872.97  17651.86  68.23
926.0  25848.12  17156.75  66.38
936.0  26639.41  16902.03  63.45
946.0  27323.34  16448.86  60.20
956.0  27983.10  15705.70  56.13
966.0  28580.08  15510.05  54.27
976.0  29061.46  15608.39  53.71
986.0  29600.63  15129.20  51.11
996.0  29854.54  15866.20  53.15
1006.0  29773.67  16312.03  54.79
1016.0  29961.72  16904.02  56.42
1026.0  29958.18  17412.08  58.12
1036.0  29727.72  17739.37  59.67
1046.0  29945.01  18277.15  61.04
1056.0  30102.43  18715.86  62.17
1066.0  30105.99  18903.76  62.79
1076.0  29996.46  18847.53  62.83
1086.0  30084.70  18761.05  62.36
1096.0  30105.40  18494.09  61.43
1106.0  30068.25  18105.52  60.21
1116.0  29868.35  17575.53  58.84
1126.0  29809.45  16819.09  56.42
1136.0  29822.39  15482.15  51.91
1146.0  29809.91  13834.54  46.41
1156.0  29735.93  12810.74  43.08
1166.0  29672.84  12427.91  41.88
1176.0  29648.36  12288.89  41.45
1186.0  29704.47  12192.81  41.05
1196.0  29371.18  11962.96  40.73
1206.0  29121.56  11885.32  40.81
1216.0  28966.90  11919.88  41.15
1226.0  28785.60  12013.62  41.73
1236.0  28657.09  12130.12  42.33
1246.0  28484.90  12174.55  42.74
1256.0  28333.73  12213.67  43.11
1266.0  28154.79  12152.52  43.16
1276.0  28214.44  12128.20  42.99
1286.0  28244.54  11960.99  42.35
1296.0  28080.90  11595.46  41.29
1306.0  27749.33  11028.55  39.74
1316.0  27339.86  10321.27  37.75
1326.0  26940.91  9516.01  35.32
1336.0  26516.39  8703.65  32.82
1346.0  26100.07  7977.10  30.56
1356.0  25456.23  7332.69  28.81
1366.0  25028.25  6718.63  26.84
1376.0  24975.46  6027.61  24.13
1386.0  24740.24  4949.93  20.01
1396.0  24477.47  3911.77  15.98
1406.0  24216.63  3195.00  13.19
1416.0  24200.46  2822.28  11.66
1426.0  24158.30  2636.09  10.91
1436.0  24072.41  2544.78  10.57
1446.0  23956.60  2495.36  10.42
1456.0  23813.94  2476.82  10.40
1466.0  23700.42  2503.72  10.56
1476.0  23484.85  2571.62  10.95
1486.0  23331.72  2700.48  11.57
1496.0  23130.98  2860.06  12.36
1506.0  22945.06  2978.75  12.98
1516.0  22702.48  3078.75  13.56
1526.0  22502.83  3199.27  14.22
1536.0  22328.41  3330.25  14.91
1546.0  22104.85  3457.46  15.64
1556.0  21942.04  3572.98  16.28
1566.0  21758.45  3674.51  16.89
1576.0  21478.18  3792.90  17.66
1586.0  21278.88  3876.73  18.22
1596.0  21035.80  3927.20  18.67
1606.0  20794.20  3975.66  19.12
1616.0  20552.01  4032.21  19.62
1626.0  20323.44  4076.55  20.06
1636.0  20065.83  4091.92  20.39
1646.0  19774.62  4079.21  20.63
1656.0  19480.49  4041.44  20.75
1666.0  19194.30  3990.83  20.79
1676.0  18944.19  3924.16  20.71
1686.0  18931.40  3883.80  20.52
1696.0  18711.77  3776.31  20.18
1706.0  18450.64  3637.60  19.72
1716.0  18035.90  3449.75  19.13
1726.0  17776.34  3288.43  18.50
1736.0  17557.88  3187.78  18.16
1746.0  17326.38  3077.04  17.76
1756.0  17015.40  2923.08  17.18
1766.0  16759.66  2796.01  16.68
1776.0  16615.26  2723.58  16.39
1786.0  16444.78  2652.62  16.13
1796.0  16217.15  2594.91  16.00
1806.0  16004.96  2562.20  16.01
1816.0  15766.24  2520.47  15.99
1826.0  15451.08  2458.69  15.91
1836.0  15063.08  2366.30  15.71
1846.0  14855.31  2286.47  15.39
1856.0  14691.59  2183.85  14.86
1866.0  14522.35  1901.25  13.09
1876.0  14253.69  1449.51  10.17
1886.0  14110.56  1145.71  8.12
1896.0  13808.32  960.51  6.96
1906.0  12793.00  702.47  5.49
1916.0  12616.65  654.38  5.19
1926.0  12521.17  644.21  5.15
1936.0  12420.38  624.42  5.03
1946.0  12399.95  640.20  5.16
1956.0  12267.23  650.49  5.30
1966.0  12255.75  686.78  5.60
1976.0  12167.54  712.98  5.86
1986.0  11984.38  725.74  6.06
1996.0  11804.14  734.18  6.22
2006.0  11722.12  786.30  6.71
2016.0  11520.71  795.19  6.90
2026.0  11331.47  817.47  7.21
2036.0  11153.81  834.85  7.48
2046.0  11015.78  855.82  7.77
2056.0  10803.98  869.34  8.05
2066.0  10617.95  874.93  8.24
2076.0  10467.51  898.38  8.58
2086.0  10367.19  906.29  8.74
2096.0  10196.33  915.98  8.98
2106.0  9977.58  911.50  9.14
2116.0  9951.76  950.34  9.55
2126.0  9831.36  956.88  9.73
2136.0  9625.43  946.54  9.83
2146.0  9388.88  959.45  10.22
2156.0  9207.43  942.98  10.24
2166.0  9064.45  933.76  10.30
2176.0  8911.97  930.96  10.45
2186.0  8812.47  930.83  10.56
2196.0  8746.91  914.38  10.45
2206.0  8717.01  921.46  10.57
2216.0  8632.54  903.94  10.47
2226.0  8558.94  892.64  10.43
2236.0  8436.18  867.57  10.28
2246.0  8282.68  831.19  10.04
2256.0  8199.17  788.64  9.62
2266.0  8120.13  761.26  9.37
2276.0  8038.92  736.74  9.16
2286.0  7958.54  693.97  8.72
2296.0  7926.13  643.71  8.12
2306.0  7675.85  605.48  7.89
2316.0  7429.53  601.24  8.09
2326.0  7404.63  596.27  8.05
2336.0  7366.33  568.94  7.72
2346.0  7276.21  563.57  7.75
2356.0  7132.49  526.85  7.39
2366.0  7038.59  487.72  6.93
2376.0  6898.87  490.92  7.12
2386.0  6807.05  472.63  6.94
2396.0  6685.66  436.00  6.52
2406.0  6574.61  436.56  6.64
2416.0  6463.16  416.01  6.44
2426.0  6354.84  395.57  6.22
2436.0  6210.96  373.85  6.02
2446.0  6104.75  360.65  5.91
2456.0  6017.59  339.00  5.63
2466.0  5854.98  317.96  5.43
2476.0  5727.20  289.63  5.06
2486.0  5577.85  292.04  5.24
2496.0  5547.28  285.00  5.14
2506.0  5804.94  277.07  4.77
