/*** Spectra Vista SIG Data ***/
name= GS1.sig
comm= Resampled spectral data SIG file reprocesed for matching/overlap;Averaged Ref/Tar of files: GD6S1,GD6S2,GD6S3
data=
346.0  350.35  82.81  23.64
356.0  548.37  98.92  18.04
366.0  733.51  116.21  15.84
376.0  1020.12  139.32  13.66
386.0  1277.04  150.11  11.75
396.0  1627.44  191.47  11.76
406.0  1981.59  206.84  10.44
416.0  2426.66  255.20  10.52
426.0  2760.20  287.28  10.41
436.0  3371.96  355.29  10.54
446.0  3932.55  421.71  10.72
456.0  4458.34  480.43  10.78
466.0  5321.78  590.09  11.09
476.0  6071.69  693.63  11.42
486.0  6545.75  750.76  11.47
496.0  7607.89  894.29  11.75
506.0  8454.78  1047.84  12.39
516.0  8783.27  1169.56  13.32
526.0  9763.90  1387.39  14.21
536.0  11118.00  1681.37  15.12
546.0  12245.42  1988.50  16.24
556.0  12328.74  2136.92  17.33
566.0  13155.91  2465.95  18.74
576.0  14507.55  2965.87  20.44
586.0  15570.89  3450.30  22.16
596.0  16431.40  3905.05  23.77
606.0  16712.83  4211.93  25.20
616.0  17829.88  4813.61  27.00
626.0  19660.82  5749.17  29.24
636.0  19333.08  6016.62  31.12
646.0  19460.12  6408.72  32.93
656.0  19022.71  6452.97  33.92
666.0  20100.61  6530.35  32.49
676.0  21420.32  7235.93  33.78
686.0  23296.24  9051.85  38.86
696.0  23938.75  10381.12  43.37
706.0  24146.65  11212.87  46.44
716.0  23692.80  11577.86  48.87
726.0  22909.23  11691.62  51.03
736.0  22412.65  11874.71  52.98
746.0  23689.99  13042.33  55.05
756.0  24146.35  13715.19  56.80
766.0  25173.28  14767.32  58.66
776.0  25830.00  15530.46  60.13
786.0  26006.50  15980.96  61.45
796.0  25488.24  15884.10  62.32
806.0  24760.71  15685.21  63.35
816.0  24660.03  15847.23  64.26
826.0  24490.65  15841.17  64.68
836.0  24813.24  16078.72  64.80
846.0  25390.01  16649.35  65.57
856.0  25793.23  17035.39  66.05
866.0  25937.23  17278.39  66.62
876.0  25978.67  17350.18  66.79
886.0  26066.82  17320.04  66.44
896.0  25797.95  16991.22  65.86
906.0  25784.12  16756.77  64.99
916.0  25585.58  16316.95  63.77
926.0  25562.63  15674.25  61.32
936.0  26313.67  15136.33  57.52
946.0  26990.41  14378.48  53.27
956.0  27679.08  13306.68  48.07
966.0  28223.03  12961.34  45.92
976.0  28734.35  13079.91  45.52
986.0  29617.10  13813.43  46.64
996.0  29682.46  14157.39  47.70
1006.0  29574.85  14577.37  49.29
1016.0  29765.57  15283.03  51.34
1026.0  29729.52  15892.27  53.46
1036.0  29515.06  16413.28  55.61
1046.0  29711.45  17110.75  57.59
1056.0  29893.15  17634.81  58.99
1066.0  29897.52  17871.87  59.78
1076.0  29800.79  17800.31  59.73
1086.0  29886.99  17625.32  58.97
1096.0  29929.51  17217.90  57.53
1106.0  29866.48  16691.14  55.89
1116.0  29674.06  16019.92  53.99
1126.0  29628.74  15002.91  50.64
1136.0  29657.68  13218.27  44.57
1146.0  29635.14  11220.28  37.86
1156.0  29553.21  10076.54  34.10
1166.0  29503.66  9653.71  32.72
1176.0  29484.94  9452.25  32.06
1186.0  29538.64  9324.96  31.57
1196.0  29214.89  9140.95  31.29
1206.0  28979.48  9085.93  31.35
1216.0  28818.50  9145.41  31.73
1226.0  28656.56  9238.19  32.24
1236.0  28531.50  9356.82  32.79
1246.0  28361.18  9419.24  33.21
1256.0  28203.68  9449.31  33.50
1266.0  28029.85  9411.12  33.58
1276.0  28088.39  9346.22  33.27
1286.0  28124.94  9145.95  32.52
1296.0  27958.41  8744.74  31.28
1306.0  27627.28  8155.06  29.52
1316.0  27221.07  7442.60  27.34
1326.0  26818.19  6667.42  24.86
1336.0  26392.47  5934.76  22.49
1346.0  25960.75  5311.97  20.46
1356.0  25324.13  4775.75  18.86
1366.0  24931.33  4298.08  17.24
1376.0  24859.99  3709.49  14.92
1386.0  24632.06  2897.98  11.77
1396.0  24380.47  2189.87  8.98
1406.0  24113.09  1766.26  7.32
1416.0  24100.63  1564.07  6.49
1426.0  24059.20  1463.01  6.08
1436.0  23972.09  1411.07  5.89
1446.0  23864.15  1379.27  5.78
1456.0  23721.80  1360.55  5.74
1466.0  23605.52  1366.57  5.79
1476.0  23392.42  1397.45  5.97
1486.0  23242.80  1469.56  6.32
1496.0  23046.32  1565.78  6.79
1506.0  22839.62  1610.88  7.05
1516.0  22613.88  1638.40  7.25
1526.0  22400.45  1683.37  7.51
1536.0  22235.76  1783.18  8.02
1546.0  22015.88  1875.40  8.52
1556.0  21843.28  1953.08  8.94
1566.0  21667.65  2023.80  9.34
1576.0  21395.50  2112.53  9.87
1586.0  21183.04  2179.56  10.29
1596.0  20952.60  2215.99  10.58
1606.0  20718.70  2256.07  10.89
1616.0  20474.49  2297.66  11.22
1626.0  20247.31  2339.00  11.55
1636.0  19983.73  2358.61  11.80
1646.0  19698.46  2363.14  12.00
1656.0  19408.32  2350.50  12.11
1666.0  19124.83  2334.30  12.21
1676.0  18864.06  2291.62  12.15
1686.0  18855.84  2264.05  12.01
1696.0  18634.96  2210.22  11.86
1706.0  18370.29  2137.00  11.63
1716.0  17962.80  2024.04  11.27
1726.0  17703.75  1933.57  10.92
1736.0  17485.45  1859.89  10.64
1746.0  17265.19  1787.01  10.35
1756.0  16948.63  1681.19  9.92
1766.0  16694.46  1602.86  9.60
1776.0  16556.01  1559.17  9.42
1786.0  16371.39  1516.88  9.27
1796.0  16140.67  1478.93  9.16
1806.0  15938.14  1464.72  9.19
1816.0  15678.97  1440.44  9.19
1826.0  15392.26  1408.07  9.15
1836.0  15002.97  1354.65  9.03
1846.0  14761.21  1300.28  8.81
1856.0  14556.19  1227.38  8.43
1866.0  14407.28  1096.20  7.61
1876.0  14196.45  897.75  6.32
1886.0  14007.84  760.18  5.43
1896.0  13666.82  700.76  5.13
1906.0  12741.66  520.88  4.09
1916.0  12564.20  503.72  4.01
1926.0  12460.23  484.95  3.89
1936.0  12370.80  485.92  3.93
1946.0  12350.77  475.88  3.85
1956.0  12226.83  489.81  4.01
1966.0  12235.64  489.76  4.00
1976.0  12109.13  491.69  4.06
1986.0  11959.16  501.76  4.20
1996.0  11765.88  495.93  4.21
2006.0  11671.47  506.79  4.34
2016.0  11489.77  501.20  4.36
2026.0  11296.39  502.84  4.45
2036.0  11118.89  512.90  4.61
2046.0  10967.77  519.36  4.74
2056.0  10772.24  513.05  4.76
2066.0  10586.51  509.15  4.81
2076.0  10437.29  522.74  5.01
2086.0  10345.87  516.84  5.00
2096.0  10147.65  524.63  5.17
2106.0  9962.90  522.02  5.24
2116.0  9924.42  526.42  5.30
2126.0  9819.65  535.39  5.45
2136.0  9628.14  532.63  5.53
2146.0  9347.98  539.39  5.77
2156.0  9207.07  536.30  5.82
2166.0  9045.30  516.35  5.71
2176.0  8862.98  533.50  6.02
2186.0  8784.19  518.45  5.90
2196.0  8710.92  508.27  5.83
2206.0  8676.64  505.88  5.83
2216.0  8628.13  530.92  6.15
2226.0  8514.03  496.56  5.83
2236.0  8471.23  494.36  5.84
2246.0  8264.26  491.47  5.95
2256.0  8190.87  451.02  5.51
2266.0  8126.90  458.23  5.64
2276.0  8029.96  427.79  5.33
2286.0  7925.78  407.24  5.14
2296.0  7890.23  401.97  5.09
2306.0  7669.48  361.62  4.72
2316.0  7409.17  377.01  5.09
2326.0  7407.33  382.76  5.17
2336.0  7352.94  350.03  4.76
2346.0  7306.66  357.42  4.89
2356.0  7113.81  319.93  4.50
2366.0  7033.05  339.45  4.83
2376.0  6902.02  311.13  4.51
2386.0  6802.63  311.65  4.58
2396.0  6698.31  293.44  4.38
2406.0  6580.89  251.99  3.83
2416.0  6486.45  275.43  4.25
2426.0  6373.82  258.09  4.05
2436.0  6209.95  268.90  4.33
2446.0  6115.19  243.49  3.98
2456.0  6033.36  261.46  4.33
2466.0  5852.24  216.32  3.70
2476.0  5728.44  210.98  3.68
2486.0  5584.08  197.60  3.54
2496.0  5488.96  226.31  4.12
2506.0  5754.08  179.50  3.12
