/*** Spectra Vista SIG Data ***/
name= RS3.sig
comm= Resampled spectral data SIG file reprocesed for matching/overlap;Averaged Ref/Tar of files: RD6S7,RD6S8,RD6S9
data=
346.0  350.35  42.26  12.06
356.0  548.37  49.13  8.96
366.0  733.51  51.33  7.00
376.0  1020.12  57.32  5.62
386.0  1277.04  52.75  4.13
396.0  1627.44  65.19  4.01
406.0  1981.59  59.91  3.02
416.0  2426.66  69.13  2.85
426.0  2760.20  71.57  2.59
436.0  3371.96  78.47  2.33
446.0  3932.55  87.60  2.23
456.0  4458.34  92.53  2.08
466.0  5321.78  110.51  2.08
476.0  6071.69  126.77  2.09
486.0  6545.75  130.13  1.99
496.0  7607.89  150.00  1.97
506.0  8454.78  171.24  2.03
516.0  8783.27  184.31  2.10
526.0  9763.90  207.76  2.13
536.0  11118.00  248.27  2.23
546.0  12245.42  287.09  2.34
556.0  12328.74  305.60  2.48
566.0  13155.91  353.36  2.69
576.0  14507.55  434.44  2.99
586.0  15570.89  536.27  3.44
596.0  16431.40  644.44  3.92
606.0  16712.83  759.82  4.55
616.0  17829.88  963.75  5.41
626.0  19660.82  1243.89  6.33
636.0  19333.08  1462.54  7.56
646.0  19460.12  1754.05  9.01
656.0  19022.71  1928.02  10.14
666.0  20100.61  2132.49  10.61
676.0  21420.32  2578.47  12.04
686.0  23296.24  3421.22  14.69
696.0  23938.75  4076.75  17.03
706.0  24146.65  4616.67  19.12
716.0  23692.80  4994.88  21.08
726.0  22909.23  5262.13  22.97
736.0  22412.65  5548.71  24.76
746.0  23689.99  6364.34  26.87
756.0  24146.35  6903.94  28.59
766.0  25173.28  7727.96  30.70
776.0  25830.00  8421.87  32.60
786.0  26006.50  8975.16  34.51
796.0  25488.24  9163.99  35.95
806.0  24760.71  9305.65  37.58
816.0  24660.03  9625.80  39.03
826.0  24490.65  9757.01  39.84
836.0  24813.24  9998.27  40.29
846.0  25390.01  10474.04  41.25
856.0  25793.23  10822.36  41.96
866.0  25937.23  11073.62  42.69
876.0  25978.67  11168.03  42.99
886.0  26066.82  11145.16  42.76
896.0  25797.95  10938.35  42.40
906.0  25784.12  10757.35  41.72
916.0  25585.58  10406.88  40.67
926.0  25562.63  9789.96  38.30
936.0  26313.67  9059.06  34.43
946.0  26990.41  8147.87  30.19
956.0  27679.08  7100.15  25.65
966.0  28223.03  6705.69  23.76
976.0  28734.35  6730.64  23.42
986.0  29617.10  6131.04  20.70
996.0  29682.46  6546.41  22.05
1006.0  29574.85  6914.21  23.38
1016.0  29765.57  7432.47  24.97
1026.0  29729.52  8006.05  26.93
1036.0  29515.06  8529.90  28.90
1046.0  29711.45  9147.65  30.79
1056.0  29893.15  9630.68  32.22
1066.0  29897.52  9866.25  33.00
1076.0  29800.79  9816.10  32.94
1086.0  29886.99  9610.04  32.15
1096.0  29929.51  9194.56  30.72
1106.0  29866.48  8684.08  29.08
1116.0  29674.06  8084.64  27.24
1126.0  29628.74  7233.01  24.41
1136.0  29657.68  5911.94  19.93
1146.0  29635.14  4725.68  15.95
1156.0  29553.21  4129.63  13.97
1166.0  29503.66  3928.82  13.32
1176.0  29484.94  3831.67  13.00
1186.0  29538.64  3760.96  12.73
1196.0  29214.89  3663.64  12.54
1206.0  28979.48  3624.67  12.51
1216.0  28818.50  3626.35  12.58
1226.0  28656.56  3649.68  12.74
1236.0  28531.50  3683.13  12.91
1246.0  28361.18  3697.72  13.04
1256.0  28203.68  3700.57  13.12
1266.0  28029.85  3674.00  13.11
1276.0  28088.39  3641.46  12.96
1286.0  28124.94  3550.05  12.62
1296.0  27958.41  3401.51  12.17
1306.0  27627.28  3184.03  11.52
1316.0  27221.07  2944.03  10.82
1326.0  26818.19  2697.42  10.06
1336.0  26392.47  2468.22  9.35
1346.0  25960.75  2272.66  8.75
1356.0  25324.13  2095.20  8.27
1366.0  24931.33  1947.35  7.81
1376.0  24859.99  1789.71  7.20
1386.0  24632.06  1541.76  6.26
1396.0  24380.47  1276.78  5.24
1406.0  24113.09  1081.59  4.49
1416.0  24100.63  971.51  4.03
1426.0  24059.20  907.18  3.77
1436.0  23972.09  870.99  3.63
1446.0  23864.15  852.93  3.57
1456.0  23721.80  840.08  3.54
1466.0  23605.52  842.21  3.57
1476.0  23392.42  857.41  3.67
1486.0  23242.80  899.60  3.87
1496.0  23046.32  944.66  4.10
1506.0  22839.62  970.50  4.25
1516.0  22613.88  986.10  4.36
1526.0  22400.45  1001.61  4.47
1536.0  22235.76  1033.40  4.65
1546.0  22015.88  1054.03  4.79
1556.0  21843.28  1070.71  4.90
1566.0  21667.65  1089.79  5.03
1576.0  21395.50  1116.30  5.22
1586.0  21183.04  1126.92  5.32
1596.0  20952.60  1123.82  5.36
1606.0  20718.70  1124.58  5.43
1616.0  20474.49  1127.17  5.51
1626.0  20247.31  1129.28  5.58
1636.0  19983.73  1123.98  5.62
1646.0  19698.46  1117.83  5.67
1656.0  19408.32  1099.10  5.66
1666.0  19124.83  1079.39  5.64
1676.0  18864.06  1055.20  5.59
1686.0  18855.84  1038.14  5.51
1696.0  18634.96  1010.75  5.42
1706.0  18370.29  973.19  5.30
1716.0  17962.80  919.82  5.12
1726.0  17703.75  882.04  4.98
1736.0  17485.45  860.91  4.92
1746.0  17265.19  842.96  4.88
1756.0  16948.63  811.85  4.79
1766.0  16694.46  787.52  4.72
1776.0  16556.01  776.27  4.69
1786.0  16371.39  757.43  4.63
1796.0  16140.67  739.47  4.58
1806.0  15938.14  729.48  4.58
1816.0  15678.97  717.50  4.58
1826.0  15392.26  700.00  4.55
1836.0  15002.97  678.29  4.52
1846.0  14761.21  670.01  4.54
1856.0  14556.19  655.35  4.50
1866.0  14407.28  604.49  4.20
1876.0  14196.45  494.51  3.48
1886.0  14007.84  412.35  2.94
1896.0  13666.82  338.09  2.47
1906.0  12741.66  258.57  2.03
1916.0  12564.20  263.00  2.09
1926.0  12460.23  248.97  2.00
1936.0  12370.80  227.58  1.84
1946.0  12350.77  239.85  1.94
1956.0  12226.83  256.28  2.10
1966.0  12235.64  260.36  2.13
1976.0  12109.13  275.21  2.27
1986.0  11959.16  263.43  2.20
1996.0  11765.88  286.13  2.43
2006.0  11671.47  285.09  2.44
2016.0  11489.77  293.27  2.55
2026.0  11296.39  299.74  2.65
2036.0  11118.89  305.09  2.74
2046.0  10967.77  298.12  2.72
2056.0  10772.24  302.85  2.81
2066.0  10586.51  301.16  2.84
2076.0  10437.29  311.11  2.98
2086.0  10345.87  299.88  2.90
2096.0  10147.65  304.35  3.00
2106.0  9962.90  302.03  3.03
2116.0  9924.42  320.38  3.23
2126.0  9819.65  327.94  3.34
2136.0  9628.14  311.18  3.23
2146.0  9347.98  301.33  3.22
2156.0  9207.07  315.48  3.43
2166.0  9045.30  292.18  3.23
2176.0  8862.98  294.52  3.32
2186.0  8784.19  306.62  3.49
2196.0  8710.92  294.35  3.38
2206.0  8676.64  305.85  3.53
2216.0  8628.13  281.18  3.26
2226.0  8514.03  269.22  3.16
2236.0  8471.23  261.53  3.09
2246.0  8264.26  248.38  3.01
2256.0  8190.87  224.72  2.74
2266.0  8126.90  250.76  3.09
2276.0  8029.96  214.86  2.68
2286.0  7925.78  205.01  2.59
2296.0  7890.23  192.99  2.45
2306.0  7669.48  184.73  2.41
2316.0  7409.17  181.67  2.45
2326.0  7407.33  187.61  2.53
2336.0  7352.94  158.40  2.15
2346.0  7306.66  168.04  2.30
2356.0  7113.81  143.19  2.01
2366.0  7033.05  171.20  2.43
2376.0  6902.02  157.59  2.28
2386.0  6802.63  135.34  1.99
2396.0  6698.31  132.79  1.98
2406.0  6580.89  120.31  1.83
2416.0  6486.45  122.33  1.89
2426.0  6373.82  86.93  1.36
2436.0  6209.95  146.83  2.36
2446.0  6115.19  101.35  1.66
2456.0  6033.36  116.17  1.93
2466.0  5852.24  115.45  1.97
2476.0  5728.44  122.36  2.14
2486.0  5584.08  86.01  1.54
2496.0  5488.96  132.88  2.42
2506.0  5754.08  69.78  1.21
