/*** Spectra Vista SIG Data ***/
name= GT.sig
comm= Resampled spectral data SIG file reprocesed for matching/overlap;Averaged Ref/Tar of files: GD2T4,GD2T5,GD2T6
data=
346.0  509.60  132.49  26.00
356.0  828.71  154.05  18.59
366.0  1135.02  172.09  15.16
376.0  1579.37  180.41  11.42
386.0  1995.77  184.26  9.23
396.0  2559.82  235.11  9.18
406.0  3091.33  229.13  7.41
416.0  3756.05  286.15  7.62
426.0  4330.84  314.78  7.27
436.0  5235.06  367.80  7.03
446.0  6088.18  452.01  7.42
456.0  6942.22  546.18  7.87
466.0  8223.74  681.64  8.29
476.0  9370.48  800.80  8.55
486.0  10269.91  910.15  8.86
496.0  11746.45  1189.81  10.13
506.0  13053.58  1686.74  12.92
516.0  13946.28  2443.21  17.52
526.0  15576.79  3580.36  22.99
536.0  17486.02  4690.42  26.82
546.0  19041.40  5484.69  28.80
556.0  19524.52  5766.32  29.53
566.0  20999.31  5966.89  28.41
576.0  23067.50  5989.20  25.96
586.0  24676.47  5913.59  23.96
596.0  26082.33  5926.47  22.72
606.0  26687.61  5780.22  21.66
616.0  28173.19  5690.72  20.20
626.0  30688.38  6087.49  19.84
636.0  30262.72  5964.46  19.71
646.0  30879.36  5084.41  16.47
656.0  30774.24  3840.88  12.48
666.0  32506.69  3686.06  11.34
676.0  34219.05  3669.71  10.72
686.0  36429.62  5116.10  14.04
696.0  37023.78  10233.19  27.64
706.0  37160.43  16754.19  45.09
716.0  36697.84  21344.06  58.16
726.0  35913.80  23996.60  66.82
736.0  35729.66  25203.44  70.54
746.0  37736.85  27471.75  72.80
756.0  38321.00  28746.30  75.01
766.0  39510.69  29996.77  75.92
776.0  40059.59  30902.91  77.14
786.0  40131.74  31186.72  77.71
796.0  39280.82  31231.62  79.51
806.0  38244.14  30680.80  80.22
816.0  38036.29  30717.45  80.76
826.0  37709.30  30549.14  81.01
836.0  38038.49  30571.70  80.37
846.0  38692.27  31174.78  80.57
856.0  39178.52  31927.53  81.49
866.0  39402.80  32122.66  81.52
876.0  39579.78  32064.75  81.01
886.0  39738.64  32096.33  80.77
896.0  39527.49  31491.06  79.67
906.0  39437.50  31005.73  78.62
916.0  39115.31  30157.76  77.10
926.0  39024.38  29073.75  74.50
936.0  39929.50  28298.50  70.87
946.0  40662.60  27074.59  66.58
956.0  41393.84  25527.52  61.67
966.0  41958.59  25008.51  59.60
976.0  42665.70  25339.50  59.39
986.0  43514.08  25081.26  57.64
996.0  44198.08  26019.19  58.87
1006.0  44152.39  26843.92  60.80
1016.0  44379.04  27998.68  63.09
1026.0  44401.68  29111.43  65.56
1036.0  44210.66  30035.77  67.94
1046.0  44505.96  31198.05  70.10
1056.0  44664.21  32082.03  71.83
1066.0  44609.35  32505.80  72.87
1076.0  44397.60  32463.71  73.12
1086.0  44469.15  32302.34  72.64
1096.0  44486.78  31780.22  71.44
1106.0  44367.02  31008.56  69.89
1116.0  44078.91  30030.91  68.13
1126.0  43954.95  28647.55  65.17
1136.0  43902.29  26151.26  59.57
1146.0  43783.94  23263.19  53.13
1156.0  43564.50  21412.76  49.15
1166.0  43347.15  20668.39  47.68
1176.0  43236.47  20363.37  47.10
1186.0  43266.58  20163.25  46.60
1196.0  42749.21  19799.99  46.32
1206.0  42347.95  19639.94  46.38
1216.0  42062.65  19693.89  46.82
1226.0  41760.57  19850.65  47.53
1236.0  41549.33  20030.96  48.21
1246.0  41291.98  20136.42  48.77
1256.0  41002.94  20168.60  49.19
1266.0  40714.26  20061.78  49.27
1276.0  40752.77  20002.54  49.08
1286.0  40729.17  19739.41  48.47
1296.0  40419.20  19164.13  47.41
1306.0  39889.01  18251.70  45.76
1316.0  39301.71  17100.66  43.51
1326.0  38739.73  15811.68  40.82
1336.0  38152.03  14538.45  38.11
1346.0  37634.91  13406.31  35.62
1356.0  36932.28  12373.28  33.50
1366.0  36373.67  11395.27  31.33
1376.0  36238.22  10273.03  28.35
1386.0  35907.93  8608.84  23.97
1396.0  35482.45  6918.63  19.50
1406.0  35048.23  5726.01  16.34
1416.0  34958.68  5076.26  14.52
1426.0  34812.11  4751.25  13.65
1436.0  34651.53  4589.61  13.25
1446.0  34455.26  4501.43  13.06
1456.0  34203.50  4476.50  13.09
1466.0  34017.99  4518.62  13.28
1476.0  33677.47  4634.27  13.76
1486.0  33445.44  4857.76  14.52
1496.0  33136.51  5135.24  15.50
1506.0  32878.23  5330.11  16.21
1516.0  32532.33  5486.35  16.86
1526.0  32200.64  5633.45  17.49
1536.0  31935.91  5860.91  18.35
1546.0  31612.44  6034.81  19.09
1556.0  31368.42  6207.54  19.79
1566.0  31082.67  6469.84  20.81
1576.0  30694.72  6657.27  21.69
1586.0  30400.45  6790.26  22.34
1596.0  30038.76  6879.88  22.90
1606.0  29713.74  6981.34  23.50
1616.0  29361.62  7053.21  24.02
1626.0  29041.80  7111.81  24.49
1636.0  28665.08  7138.18  24.90
1646.0  28273.39  7154.15  25.30
1656.0  27876.35  7115.25  25.52
1666.0  27464.92  7046.09  25.65
1676.0  27087.15  6935.33  25.60
1686.0  27082.21  6845.52  25.28
1696.0  26749.12  6653.68  24.87
1706.0  26324.28  6396.56  24.30
1716.0  25713.57  6082.78  23.66
1726.0  25342.79  5809.04  22.92
1736.0  25046.96  5643.33  22.53
1746.0  24724.28  5486.36  22.19
1756.0  24256.84  5247.60  21.63
1766.0  23870.66  5061.16  21.20
1776.0  23641.10  4947.92  20.93
1786.0  23371.07  4844.06  20.73
1796.0  23059.77  4758.05  20.63
1806.0  22801.89  4703.78  20.63
1816.0  22515.30  4643.23  20.62
1826.0  22114.90  4547.70  20.56
1836.0  21613.42  4394.39  20.33
1846.0  21215.40  4238.50  19.98
1856.0  20774.86  4000.83  19.26
1866.0  20736.29  3660.25  17.65
1876.0  20407.50  3095.99  15.17
1886.0  20155.03  2564.77  12.73
1896.0  19660.33  2252.37  11.46
1906.0  18631.25  1201.74  6.45
1916.0  18318.88  1183.55  6.46
1926.0  18038.46  1161.08  6.44
1936.0  17863.51  1155.90  6.47
1946.0  17797.41  1187.40  6.67
1956.0  17592.99  1220.63  6.94
1966.0  17571.94  1272.25  7.24
1976.0  17404.06  1300.55  7.47
1986.0  17183.68  1350.65  7.86
1996.0  16906.31  1392.46  8.24
2006.0  16756.31  1457.01  8.70
2016.0  16485.40  1481.06  8.98
2026.0  16206.02  1510.83  9.32
2036.0  15962.47  1536.32  9.62
2046.0  15735.40  1557.28  9.90
2056.0  15460.05  1572.88  10.17
2066.0  15198.46  1589.12  10.46
2076.0  14951.14  1608.06  10.76
2086.0  14836.37  1644.75  11.09
2096.0  14558.23  1666.97  11.45
2106.0  14302.47  1679.95  11.75
2116.0  14222.98  1715.49  12.06
2126.0  14069.19  1731.55  12.31
2136.0  13798.40  1747.82  12.67
2146.0  13445.76  1723.58  12.82
2156.0  13239.56  1728.37  13.05
2166.0  12983.56  1716.69  13.22
2176.0  12771.15  1705.18  13.35
2186.0  12627.18  1713.83  13.57
2196.0  12513.18  1708.10  13.65
2206.0  12456.23  1703.09  13.67
2216.0  12351.60  1681.40  13.61
2226.0  12205.08  1636.33  13.41
2236.0  12132.89  1598.44  13.17
2246.0  11882.62  1521.71  12.81
2256.0  11773.90  1443.59  12.26
2266.0  11670.88  1381.67  11.84
2276.0  11528.71  1332.67  11.56
2286.0  11463.55  1280.93  11.17
2296.0  11358.16  1221.92  10.76
2306.0  11039.70  1102.66  9.99
2316.0  10655.77  1068.25  10.03
2326.0  10608.43  1072.85  10.11
2336.0  10592.93  1050.23  9.91
2346.0  10498.36  1005.97  9.58
2356.0  10259.04  938.72  9.15
2366.0  10158.26  934.51  9.20
2376.0  9929.58  886.92  8.93
2386.0  9815.44  868.29  8.85
2396.0  9663.63  824.95  8.54
2406.0  9510.88  807.81  8.49
2416.0  9304.41  758.37  8.15
2426.0  9217.28  726.25  7.88
2436.0  8983.54  705.48  7.85
2446.0  8817.11  653.54  7.41
2456.0  8689.94  651.64  7.50
2466.0  8452.21  637.94  7.55
2476.0  8254.64  609.01  7.38
2486.0  8114.28  574.39  7.08
2496.0  7981.99  539.56  6.76
2506.0  8320.96  572.19  6.88
