/*** Spectra Vista SIG Data ***/
name= GT2.sig
comm= Resampled spectral data SIG file reprocesed for matching/overlap;Averaged Ref/Tar of files: GD6T4,GD6T5,GD6T6
data=
346.0  350.35  56.91  16.24
356.0  548.37  65.29  11.91
366.0  733.51  73.92  10.08
376.0  1020.12  77.17  7.56
386.0  1277.04  81.02  6.34
396.0  1627.44  102.50  6.30
406.0  1981.59  102.26  5.16
416.0  2426.66  124.40  5.13
426.0  2760.20  133.26  4.83
436.0  3371.96  158.31  4.69
446.0  3932.55  186.51  4.74
456.0  4458.34  202.24  4.54
466.0  5321.78  245.26  4.61
476.0  6071.69  280.16  4.61
486.0  6545.75  305.76  4.67
496.0  7607.89  367.76  4.83
506.0  8454.78  438.77  5.19
516.0  8783.27  496.13  5.65
526.0  9763.90  607.68  6.22
536.0  11118.00  754.51  6.79
546.0  12245.42  902.87  7.37
556.0  12328.74  992.86  8.05
566.0  13155.91  1163.06  8.84
576.0  14507.55  1422.17  9.80
586.0  15570.89  1688.93  10.85
596.0  16431.40  1905.94  11.60
606.0  16712.83  2052.56  12.28
616.0  17829.88  2346.65  13.16
626.0  19660.82  2512.36  12.78
636.0  19333.08  2840.90  14.69
646.0  19460.12  3199.56  16.44
656.0  19022.71  3123.51  16.42
666.0  20100.61  2975.61  14.80
676.0  21420.32  3237.94  15.12
686.0  23296.24  4393.23  18.86
696.0  23938.75  5537.53  23.13
706.0  24146.65  6317.91  26.16
716.0  23692.80  6669.07  28.15
726.0  22909.23  6810.06  29.73
736.0  22412.65  6971.82  31.11
746.0  23689.99  7803.16  32.94
756.0  24146.35  8182.63  33.89
766.0  25173.28  9018.46  35.83
776.0  25830.00  9625.30  37.26
786.0  26006.50  10085.79  38.78
796.0  25488.24  9987.65  39.19
806.0  24760.71  9953.66  40.20
816.0  24660.03  10178.79  41.28
826.0  24490.65  10175.06  41.55
836.0  24813.24  10407.55  41.94
846.0  25390.01  10911.94  42.98
856.0  25793.23  11179.20  43.34
866.0  25937.23  11424.70  44.05
876.0  25978.67  11533.24  44.40
886.0  26066.82  11494.01  44.09
896.0  25797.95  11279.15  43.72
906.0  25784.12  11150.65  43.25
916.0  25585.58  10857.26  42.44
926.0  25562.63  10358.52  40.52
936.0  26313.67  9861.36  37.48
946.0  26990.41  9166.64  33.96
956.0  27679.08  8235.25  29.75
966.0  28223.03  7922.83  28.07
976.0  28734.35  7890.45  27.46
986.0  29617.10  7481.78  25.26
996.0  29682.46  8000.62  26.95
1006.0  29574.85  8381.02  28.34
1016.0  29765.57  8913.03  29.94
1026.0  29729.52  9413.52  31.66
1036.0  29515.06  9830.22  33.31
1046.0  29711.45  10354.23  34.85
1056.0  29893.15  10787.92  36.09
1066.0  29897.52  10984.89  36.74
1076.0  29800.79  10943.07  36.72
1086.0  29886.99  10790.74  36.11
1096.0  29929.51  10467.91  34.98
1106.0  29866.48  10068.44  33.71
1116.0  29674.06  9542.43  32.16
1126.0  29628.74  8763.53  29.58
1136.0  29657.68  7415.68  25.00
1146.0  29635.14  6000.67  20.25
1156.0  29553.21  5258.18  17.79
1166.0  29503.66  5012.84  16.99
1176.0  29484.94  4911.28  16.66
1186.0  29538.64  4839.51  16.38
1196.0  29214.89  4739.49  16.22
1206.0  28979.48  4720.26  16.29
1216.0  28818.50  4750.96  16.49
1226.0  28656.56  4814.27  16.80
1236.0  28531.50  4877.62  17.10
1246.0  28361.18  4932.73  17.39
1256.0  28203.68  4958.47  17.58
1266.0  28029.85  4949.63  17.66
1276.0  28088.39  4904.46  17.46
1286.0  28124.94  4768.98  16.96
1296.0  27958.41  4528.14  16.20
1306.0  27627.28  4181.36  15.13
1316.0  27221.07  3768.08  13.84
1326.0  26818.19  3331.42  12.42
1336.0  26392.47  2916.33  11.05
1346.0  25960.75  2603.01  10.03
1356.0  25324.13  2342.07  9.25
1366.0  24931.33  2097.70  8.41
1376.0  24859.99  1858.11  7.47
1386.0  24632.06  1517.08  6.16
1396.0  24380.47  1242.20  5.10
1406.0  24113.09  1076.33  4.46
1416.0  24100.63  988.71  4.10
1426.0  24059.20  945.38  3.93
1436.0  23972.09  923.74  3.85
1446.0  23864.15  906.97  3.80
1456.0  23721.80  894.31  3.77
1466.0  23605.52  894.34  3.79
1476.0  23392.42  901.65  3.85
1486.0  23242.80  928.64  4.00
1496.0  23046.32  970.36  4.21
1506.0  22839.62  985.50  4.31
1516.0  22613.88  993.14  4.39
1526.0  22400.45  1001.61  4.47
1536.0  22235.76  1021.66  4.59
1546.0  22015.88  1049.56  4.77
1556.0  21843.28  1065.04  4.88
1566.0  21667.65  1084.69  5.01
1576.0  21395.50  1116.84  5.22
1586.0  21183.04  1138.90  5.38
1596.0  20952.60  1137.17  5.43
1606.0  20718.70  1154.36  5.57
1616.0  20474.49  1155.42  5.64
1626.0  20247.31  1173.50  5.80
1636.0  19983.73  1177.91  5.89
1646.0  19698.46  1170.43  5.94
1656.0  19408.32  1146.95  5.91
1666.0  19124.83  1133.53  5.93
1676.0  18864.06  1113.01  5.90
1686.0  18855.84  1100.90  5.84
1696.0  18634.96  1081.40  5.80
1706.0  18370.29  1056.10  5.75
1716.0  17962.80  1009.05  5.62
1726.0  17703.75  966.47  5.46
1736.0  17485.45  934.12  5.34
1746.0  17265.19  895.96  5.19
1756.0  16948.63  856.63  5.05
1766.0  16694.46  826.47  4.95
1776.0  16556.01  809.89  4.89
1786.0  16371.39  783.34  4.78
1796.0  16140.67  769.64  4.77
1806.0  15938.14  759.58  4.77
1816.0  15678.97  746.44  4.76
1826.0  15392.26  736.12  4.78
1836.0  15002.97  712.35  4.75
1846.0  14761.21  712.54  4.83
1856.0  14556.19  712.79  4.90
1866.0  14407.28  651.02  4.52
1876.0  14196.45  518.75  3.65
1886.0  14007.84  458.76  3.28
1896.0  13666.82  443.19  3.24
1906.0  12741.66  432.83  3.40
1916.0  12564.20  414.68  3.30
1926.0  12460.23  388.52  3.12
1936.0  12370.80  390.49  3.16
1946.0  12350.77  385.25  3.12
1956.0  12226.83  395.98  3.24
1966.0  12235.64  401.96  3.29
1976.0  12109.13  401.15  3.31
1986.0  11959.16  404.26  3.38
1996.0  11765.88  401.93  3.42
2006.0  11671.47  420.56  3.60
2016.0  11489.77  394.81  3.44
2026.0  11296.39  402.40  3.56
2036.0  11118.89  410.80  3.69
2046.0  10967.77  409.78  3.74
2056.0  10772.24  398.61  3.70
2066.0  10586.51  386.46  3.65
2076.0  10437.29  423.84  4.06
2086.0  10345.87  409.23  3.96
2096.0  10147.65  414.26  4.08
2106.0  9962.90  406.43  4.08
2116.0  9924.42  417.67  4.21
2126.0  9819.65  396.41  4.04
2136.0  9628.14  388.84  4.04
2146.0  9347.98  395.04  4.23
2156.0  9207.07  399.96  4.34
2166.0  9045.30  372.05  4.11
2176.0  8862.98  370.80  4.18
2186.0  8784.19  372.42  4.24
2196.0  8710.92  342.58  3.93
2206.0  8676.64  347.98  4.01
2216.0  8628.13  353.62  4.10
2226.0  8514.03  340.26  4.00
2236.0  8471.23  326.04  3.85
2246.0  8264.26  331.52  4.01
2256.0  8190.87  298.45  3.64
2266.0  8126.90  309.90  3.81
2276.0  8029.96  282.71  3.52
2286.0  7925.78  283.76  3.58
2296.0  7890.23  281.33  3.57
2306.0  7669.48  272.28  3.55
2316.0  7409.17  265.60  3.58
2326.0  7407.33  263.36  3.56
2336.0  7352.94  245.30  3.34
2346.0  7306.66  257.36  3.52
2356.0  7113.81  225.56  3.17
2366.0  7033.05  224.87  3.20
2376.0  6902.02  234.71  3.40
2386.0  6802.63  206.81  3.04
2396.0  6698.31  217.19  3.24
2406.0  6580.89  197.26  3.00
2416.0  6486.45  203.69  3.14
2426.0  6373.82  181.36  2.85
2436.0  6209.95  199.72  3.22
2446.0  6115.19  180.15  2.95
2456.0  6033.36  200.16  3.32
2466.0  5852.24  148.08  2.53
2476.0  5728.44  156.47  2.73
2486.0  5584.08  154.10  2.76
2496.0  5488.96  171.15  3.12
2506.0  5754.08  80.45  1.40
