/*** Spectra Vista SIG Data ***/
name= T1.sig
comm= Resampled spectral data SIG file reprocesed for matching/overlap;Averaged Ref/Tar of files: RD3T1,RD3T2,RD3T3
data=
346.0  598.78  163.07  27.23
356.0  924.17  186.41  20.17
366.0  1234.61  206.46  16.72
376.0  1691.57  210.65  12.45
386.0  2110.32  209.06  9.91
396.0  2699.64  251.52  9.32
406.0  3258.06  231.42  7.10
416.0  3980.12  270.34  6.79
426.0  4560.62  279.55  6.13
436.0  5560.57  307.09  5.52
446.0  6459.13  347.85  5.39
456.0  7345.42  365.06  4.97
466.0  8824.96  428.96  4.86
476.0  10121.58  489.32  4.83
486.0  10943.49  494.01  4.51
496.0  12761.25  571.41  4.48
506.0  14311.81  664.47  4.64
516.0  15112.04  742.17  4.91
526.0  16957.18  879.89  5.19
536.0  19355.60  1060.03  5.48
546.0  21330.59  1227.40  5.75
556.0  21581.55  1304.42  6.04
566.0  23226.44  1513.10  6.51
576.0  25810.52  1882.58  7.29
586.0  27755.51  2389.03  8.61
596.0  29194.08  3032.77  10.39
606.0  29534.45  3772.70  12.77
616.0  31318.23  4894.36  15.63
626.0  34410.58  6644.49  19.31
636.0  34069.21  7664.12  22.50
646.0  34679.65  7475.85  21.56
656.0  34069.42  7285.21  21.38
666.0  35802.93  6908.15  19.29
676.0  37841.78  6975.41  18.43
686.0  40854.13  10636.80  26.04
696.0  41747.28  18454.05  44.20
706.0  41971.06  23822.09  56.76
716.0  41223.34  26143.02  63.42
726.0  40067.78  26847.23  67.00
736.0  39511.29  27062.45  68.49
746.0  41985.01  29201.97  69.55
756.0  42844.63  30144.74  70.36
766.0  44461.06  31638.93  71.16
776.0  45318.27  32549.87  71.83
786.0  45304.05  32850.64  72.51
796.0  44083.17  32304.72  73.28
806.0  42558.06  31455.95  73.91
816.0  42205.19  31286.78  74.13
826.0  41881.04  30856.47  73.68
836.0  42513.48  30795.62  72.44
846.0  43677.73  31515.92  72.16
856.0  44639.93  32114.53  71.94
866.0  45173.91  32320.97  71.55
876.0  45452.84  32231.89  70.91
886.0  45709.40  31969.39  69.94
896.0  45235.90  31117.54  68.79
906.0  45023.00  30482.74  67.70
916.0  44495.20  29555.73  66.42
926.0  44269.25  28397.63  64.15
936.0  45413.73  27606.75  60.79
946.0  46396.61  26568.29  57.26
956.0  47429.46  25223.49  53.18
966.0  48326.20  24765.89  51.25
976.0  49108.57  25069.15  51.05
986.0  50490.65  27067.97  53.61
996.0  50607.35  27596.81  54.53
1006.0  50486.13  28135.99  55.73
1016.0  50803.76  29191.31  57.46
1026.0  50772.47  30079.92  59.24
1036.0  50488.61  30796.08  61.00
1046.0  50910.83  31864.19  62.59
1056.0  51254.42  32669.40  63.74
1066.0  51336.62  33007.18  64.30
1076.0  51162.22  32915.09  64.33
1086.0  51303.09  32686.88  63.71
1096.0  51344.30  32118.66  62.56
1106.0  51211.90  31333.85  61.18
1116.0  50831.30  30324.32  59.66
1126.0  50674.44  28935.57  57.10
1136.0  50616.91  26501.42  52.36
1146.0  50531.75  23687.66  46.88
1156.0  50358.44  21866.16  43.42
1166.0  50175.54  21080.70  42.01
1176.0  50092.24  20697.46  41.32
1186.0  50160.75  20438.16  40.75
1196.0  49589.85  20002.60  40.34
1206.0  49136.73  19807.58  40.31
1216.0  48856.16  19866.46  40.66
1226.0  48538.40  20031.31  41.27
1236.0  48332.55  20188.64  41.77
1246.0  48044.92  20266.68  42.18
1256.0  47756.51  20274.39  42.45
1266.0  47442.71  20170.42  42.52
1276.0  47551.66  20102.08  42.27
1286.0  47606.03  19854.95  41.71
1296.0  47326.24  19263.63  40.70
1306.0  46758.50  18328.90  39.20
1316.0  46095.57  17169.09  37.25
1326.0  45453.96  15876.94  34.93
1336.0  44765.54  14569.14  32.55
1346.0  44091.89  13390.91  30.37
1356.0  43065.01  12278.05  28.51
1366.0  42453.65  11314.03  26.65
1376.0  42338.17  10167.99  24.02
1386.0  41985.88  8364.04  19.92
1396.0  41548.36  6538.58  15.74
1406.0  41106.41  5230.85  12.73
1416.0  41061.27  4526.37  11.02
1426.0  40954.01  4168.77  10.18
1436.0  40796.14  3988.87  9.78
1446.0  40594.32  3895.06  9.60
1456.0  40330.62  3853.35  9.55
1466.0  40125.74  3888.97  9.69
1476.0  39754.25  3997.89  10.06
1486.0  39484.92  4228.84  10.71
1496.0  39151.21  4513.46  11.53
1506.0  38800.67  4705.20  12.13
1516.0  38385.61  4820.85  12.56
1526.0  38038.86  5001.69  13.15
1536.0  37757.73  5226.70  13.84
1546.0  37407.06  5419.88  14.49
1556.0  37137.95  5643.55  15.20
1566.0  36823.70  5825.11  15.82
1576.0  36372.01  6017.81  16.55
1586.0  36009.48  6150.53  17.08
1596.0  35619.37  6250.17  17.55
1606.0  35232.08  6339.69  17.99
1616.0  34829.65  6419.07  18.43
1626.0  34452.68  6498.41  18.86
1636.0  34007.58  6543.44  19.24
1646.0  33523.68  6541.03  19.51
1656.0  33037.62  6506.88  19.70
1666.0  32548.04  6436.71  19.78
1676.0  32123.29  6337.94  19.73
1686.0  32117.51  6246.62  19.45
1696.0  31764.57  6069.29  19.11
1706.0  31316.98  5832.32  18.62
1716.0  30611.05  5521.86  18.04
1726.0  30177.81  5260.69  17.43
1736.0  29812.17  5119.29  17.17
1746.0  29439.81  4961.02  16.85
1756.0  28928.41  4728.01  16.34
1766.0  28491.94  4544.23  15.95
1776.0  28263.25  4443.32  15.72
1786.0  27973.79  4333.11  15.49
1796.0  27612.53  4258.28  15.42
1806.0  27286.01  4211.08  15.43
1816.0  26879.26  4150.80  15.44
1826.0  26408.56  4073.72  15.43
1836.0  25765.82  3934.00  15.27
1846.0  25402.19  3791.09  14.92
1856.0  25067.72  3576.64  14.27
1866.0  24868.79  3168.71  12.74
1876.0  24488.38  2563.32  10.47
1886.0  24233.30  2015.72  8.32
1896.0  23683.96  1723.94  7.28
1906.0  22096.75  1451.03  6.57
1916.0  21802.32  1400.01  6.42
1926.0  21588.87  1363.17  6.31
1936.0  21449.43  1360.23  6.34
1946.0  21420.23  1383.56  6.46
1956.0  21201.75  1399.99  6.60
1966.0  21198.12  1450.19  6.84
1976.0  21006.67  1469.47  7.00
1986.0  20732.55  1510.19  7.28
1996.0  20450.49  1545.89  7.56
2006.0  20269.19  1586.86  7.83
2016.0  19957.87  1606.38  8.05
2026.0  19629.85  1633.97  8.32
2036.0  19319.95  1667.05  8.63
2046.0  19073.35  1691.38  8.87
2056.0  18736.02  1694.78  9.05
2066.0  18425.00  1705.71  9.26
2076.0  18163.31  1721.43  9.48
2086.0  17998.96  1757.22  9.76
2096.0  17698.67  1753.60  9.91
2106.0  17393.37  1756.67  10.10
2116.0  17301.34  1796.87  10.39
2126.0  17117.10  1836.96  10.73
2136.0  16805.93  1824.67  10.86
2146.0  16338.81  1818.59  11.13
2156.0  16108.43  1821.50  11.31
2166.0  15818.08  1806.85  11.42
2176.0  15571.16  1790.61  11.50
2186.0  15407.91  1798.68  11.67
2196.0  15291.27  1784.10  11.67
2206.0  15252.10  1794.74  11.77
2216.0  15137.72  1766.90  11.67
2226.0  14957.58  1737.82  11.62
2236.0  14828.49  1691.40  11.41
2246.0  14572.63  1622.84  11.14
2256.0  14413.52  1533.24  10.64
2266.0  14283.01  1461.43  10.23
2276.0  14142.85  1413.54  9.99
2286.0  14066.30  1335.88  9.50
2296.0  13956.39  1279.41  9.17
2306.0  13536.25  1177.31  8.70
2316.0  13130.37  1129.42  8.60
2326.0  13082.91  1112.58  8.50
2336.0  13030.52  1087.14  8.34
2346.0  12874.44  1039.24  8.07
2356.0  12605.38  989.04  7.85
2366.0  12490.11  941.25  7.54
2376.0  12262.88  900.69  7.34
2386.0  12077.58  865.17  7.16
2396.0  11871.57  828.39  6.98
2406.0  11728.43  776.06  6.62
2416.0  11508.86  768.59  6.68
2426.0  11344.58  714.44  6.30
2436.0  11091.32  670.90  6.05
2446.0  10929.32  632.41  5.79
2456.0  10711.77  612.91  5.72
2466.0  10484.26  568.08  5.42
2476.0  10216.57  548.86  5.37
2486.0  9941.47  520.51  5.24
2496.0  9864.73  545.83  5.53
2506.0  10308.86  508.81  4.94
