/*** Spectra Vista SIG Data ***/
name= GS2.sig
comm= Averaged Ref/Tar of files: GD4S4,GD4S5,GD4S6
data=
346.4  1.00  69.43  6943.33
347.9  1.00  68.61  6861.00
349.5  1.00  73.63  7363.33
351.1  1.00  70.72  7072.33
352.6  1.00  69.79  6978.67
354.2  1.00  75.05  7505.00
355.7  1.00  77.90  7790.33
357.3  1.00  82.53  8252.67
358.8  1.00  82.02  8201.67
360.4  1.00  85.59  8559.33
361.9  1.00  82.65  8265.00
363.5  1.00  84.49  8448.67
365.1  1.00  83.22  8321.67
366.6  1.00  86.77  8677.00
368.2  1.00  86.62  8662.33
369.7  1.00  84.46  8445.67
371.3  1.00  86.48  8648.33
372.8  1.00  88.75  8875.33
374.4  1.00  89.45  8944.67
375.9  1.00  90.91  9091.33
377.4  1.00  88.47  8847.00
379.0  1.00  94.20  9420.33
380.5  1.00  91.71  9171.00
382.1  1.00  89.63  8963.33
383.6  1.00  93.37  9336.67
385.2  1.00  89.65  8965.00
386.7  1.00  93.32  9332.00
388.3  1.00  95.29  9529.33
389.8  1.00  101.02  10102.00
391.3  1.00  105.64  10564.33
392.9  1.00  106.40  10640.00
394.4  1.00  116.13  11613.00
395.9  1.00  124.13  12413.33
397.5  1.00  132.00  13199.67
399.0  1.00  133.49  13349.00
400.6  1.00  134.33  13433.00
402.1  1.00  131.06  13106.33
403.6  1.00  130.42  13042.33
405.1  1.00  133.29  13329.33
406.7  1.00  137.39  13738.67
408.2  1.00  141.23  14122.67
409.7  1.00  147.99  14799.00
411.3  1.00  156.06  15606.00
412.8  1.00  161.32  16132.00
414.3  1.00  167.90  16790.00
415.8  1.00  176.17  17616.67
417.4  1.00  182.67  18266.67
418.9  1.00  191.44  19143.67
420.4  1.00  193.92  19391.67
421.9  1.00  199.09  19908.67
423.5  1.00  198.94  19894.00
425.0  1.00  203.62  20362.33
426.5  1.00  206.26  20625.67
428.0  1.00  209.90  20990.33
429.5  1.00  213.04  21304.00
431.1  1.00  219.94  21994.33
432.6  1.00  226.60  22660.00
434.1  1.00  234.08  23408.00
435.6  1.00  243.04  24303.67
437.1  1.00  248.82  24882.00
438.6  1.00  256.24  25624.00
440.1  1.00  265.26  26526.00
441.6  1.00  274.88  27487.67
443.1  1.00  285.80  28580.00
444.7  1.00  298.25  29825.00
446.2  1.00  308.87  30887.00
447.7  1.00  321.61  32161.33
449.2  1.00  334.22  33422.33
450.7  1.00  345.28  34528.00
452.2  1.00  358.03  35802.67
453.7  1.00  367.79  36778.67
455.2  1.00  383.17  38317.00
456.7  1.00  396.47  39647.00
458.2  1.00  412.88  41287.67
459.7  1.00  428.28  42828.33
461.2  1.00  444.07  44407.33
462.7  1.00  458.12  45812.00
464.2  1.00  473.24  47323.67
465.7  1.00  485.65  48565.00
467.2  1.00  497.42  49742.33
468.7  1.00  510.67  51066.67
470.2  1.00  519.90  51990.00
471.7  1.00  535.49  53548.67
473.2  1.00  555.15  55515.00
474.6  1.00  574.22  57422.33
476.1  1.00  584.13  58413.33
477.6  1.00  586.20  58620.33
479.1  1.00  591.00  59100.00
480.6  1.00  596.21  59621.33
482.1  1.00  610.65  61064.67
483.6  1.00  623.80  62379.67
485.1  1.00  640.36  64035.67
486.6  1.00  662.95  66295.33
488.0  1.00  686.84  68683.67
489.5  1.00  716.95  71695.33
491.0  1.00  748.52  74852.33
492.5  1.00  783.11  78311.00
494.0  1.00  824.91  82491.33
495.4  1.00  863.94  86394.00
496.9  1.00  911.60  91160.00
498.4  1.00  961.23  96122.67
499.9  1.00  1012.29  101229.33
501.4  1.00  1069.57  106956.67
502.8  1.00  1128.85  112884.67
504.3  1.00  1190.40  119040.00
505.8  1.00  1256.35  125634.67
507.2  1.00  1319.12  131911.67
508.7  1.00  1379.85  137985.33
510.2  1.00  1441.37  144137.00
511.6  1.00  1502.59  150259.33
513.1  1.00  1571.05  157104.67
514.6  1.00  1641.22  164122.33
516.0  1.00  1709.65  170965.33
517.5  1.00  1786.40  178639.67
519.0  1.00  1867.58  186757.67
520.5  1.00  1946.02  194602.33
521.9  1.00  2031.11  203111.00
523.4  1.00  2121.03  212103.33
524.8  1.00  2207.59  220758.67
526.3  1.00  2299.44  229944.33
527.8  1.00  2387.84  238783.67
529.2  1.00  2470.14  247013.67
530.7  1.00  2555.70  255570.33
532.1  1.00  2633.51  263351.33
533.6  1.00  2717.08  271708.33
535.0  1.00  2798.10  279810.33
536.5  1.00  2877.77  287777.00
538.0  1.00  2955.41  295541.00
539.4  1.00  3029.14  302913.67
540.9  1.00  3117.57  311756.67
542.3  1.00  3204.85  320485.33
543.8  1.00  3277.09  327709.33
545.2  1.00  3316.56  331656.00
546.6  1.00  3335.35  333534.67
548.1  1.00  3356.05  335604.67
549.5  1.00  3374.24  337424.33
551.0  1.00  3393.24  339324.00
552.4  1.00  3415.00  341500.33
553.9  1.00  3429.52  342952.33
555.3  1.00  3445.77  344577.00
556.8  1.00  3471.76  347175.67
558.2  1.00  3495.71  349571.33
559.6  1.00  3521.59  352158.67
561.1  1.00  3557.24  355723.67
562.5  1.00  3592.70  359269.67
564.0  1.00  3637.79  363778.67
565.4  1.00  3677.13  367713.33
566.8  1.00  3722.16  372215.67
568.3  1.00  3762.36  376236.33
569.7  1.00  3803.49  380348.67
571.1  1.00  3836.34  383634.33
572.6  1.00  3868.88  386888.33
574.0  1.00  3900.93  390093.00
575.4  1.00  3927.49  392748.67
576.9  1.00  3953.56  395356.33
578.3  1.00  3972.54  397254.00
579.7  1.00  3996.53  399653.33
581.1  1.00  4009.68  400968.00
582.6  1.00  4026.40  402639.67
584.0  1.00  4043.12  404312.33
585.4  1.00  4073.85  407384.67
586.8  1.00  4122.64  412263.67
588.3  1.00  4181.27  418127.00
589.7  1.00  4230.56  423056.33
591.1  1.00  4255.18  425518.33
592.5  1.00  4260.59  426059.33
594.0  1.00  4254.71  425470.67
595.4  1.00  4243.73  424373.33
596.8  1.00  4231.37  423137.00
598.2  1.00  4221.83  422183.00
599.6  1.00  4210.24  421024.33
601.0  1.00  4206.93  420692.67
602.4  1.00  4204.25  420425.00
603.9  1.00  4206.10  420610.00
605.3  1.00  4206.50  420649.67
606.7  1.00  4196.88  419688.00
608.1  1.00  4200.04  420004.33
609.5  1.00  4205.10  420510.00
610.9  1.00  4213.43  421342.67
612.3  1.00  4217.62  421761.67
613.7  1.00  4229.78  422977.67
615.1  1.00  4222.04  422204.33
616.5  1.00  4217.30  421730.00
617.9  1.00  4238.08  423807.67
619.3  1.00  4265.66  426566.33
620.7  1.00  4313.56  431356.00
622.1  1.00  4323.72  432372.33
623.5  1.00  4331.51  433151.00
624.9  1.00  4366.39  436639.33
626.3  1.00  4396.11  439611.00
627.7  1.00  4358.24  435824.00
629.1  1.00  4334.20  433420.33
630.5  1.00  4333.29  433329.00
631.9  1.00  4338.16  433815.67
633.3  1.00  4336.39  433639.00
634.7  1.00  4342.56  434256.00
636.1  1.00  4312.32  431231.67
637.5  1.00  4268.48  426848.33
638.9  1.00  4216.45  421645.00
640.2  1.00  4152.12  415211.67
641.6  1.00  4076.44  407643.67
643.0  1.00  4009.13  400912.67
644.4  1.00  3959.89  395989.33
645.8  1.00  3923.48  392348.00
647.2  1.00  3922.19  392219.33
648.5  1.00  3920.84  392084.33
649.9  1.00  3910.66  391066.00
651.3  1.00  3917.65  391765.00
652.7  1.00  3910.00  391000.00
654.1  1.00  3780.20  378020.00
655.5  1.00  3615.17  361516.67
656.8  1.00  3457.89  345788.67
658.2  1.00  3356.32  335631.67
659.6  1.00  3281.63  328163.33
660.9  1.00  3205.79  320579.00
662.3  1.00  3125.45  312545.33
663.7  1.00  3047.10  304710.00
665.0  1.00  2970.34  297034.00
666.4  1.00  2904.49  290449.33
667.8  1.00  2855.63  285563.00
669.1  1.00  2806.15  280615.00
670.5  1.00  2780.12  278011.67
671.9  1.00  2753.86  275386.33
673.2  1.00  2748.48  274848.33
674.6  1.00  2760.28  276027.67
676.0  1.00  2788.62  278862.00
677.3  1.00  2834.25  283425.33
678.7  1.00  2900.63  290062.67
680.0  1.00  3000.55  300054.67
681.4  1.00  3138.35  313835.33
682.8  1.00  3318.92  331892.33
684.1  1.00  3553.05  355305.33
685.5  1.00  3835.51  383551.33
686.8  1.00  4165.93  416592.67
688.2  1.00  4536.53  453653.33
689.5  1.00  4926.94  492694.00
690.9  1.00  5346.54  534653.67
692.2  1.00  5775.07  577507.00
693.6  1.00  6226.15  622614.67
694.9  1.00  6657.19  665718.67
696.2  1.00  7089.92  708992.33
697.6  1.00  7509.54  750954.33
698.9  1.00  7920.53  792053.00
700.3  1.00  8314.20  831420.33
701.6  1.00  8685.47  868547.33
703.0  1.00  9032.73  903273.33
704.3  1.00  9325.28  932528.00
705.6  1.00  9605.22  960522.33
707.0  1.00  9866.88  986688.33
708.3  1.00  10080.03  1008002.67
709.6  1.00  10274.44  1027444.33
711.0  1.00  10442.15  1044214.67
712.3  1.00  10599.37  1059936.67
713.6  1.00  10764.12  1076412.33
714.9  1.00  10915.83  1091582.67
716.3  1.00  11065.70  1106570.00
717.6  1.00  11227.10  1122710.00
718.9  1.00  11338.36  1133835.67
720.2  1.00  11396.86  1139686.33
721.6  1.00  11467.65  1146765.00
722.9  1.00  11528.44  1152844.00
724.2  1.00  11563.03  1156302.67
725.5  1.00  11612.94  1161294.33
726.8  1.00  11640.44  1164044.33
728.1  1.00  11678.82  1167882.00
729.5  1.00  11719.91  1171991.33
730.8  1.00  11769.43  1176942.67
732.1  1.00  11807.65  1180765.00
733.4  1.00  11850.70  1185070.33
734.7  1.00  11878.37  1187837.33
736.0  1.00  11932.09  1193209.33
737.3  1.00  11977.35  1197735.00
738.6  1.00  12054.40  1205439.67
739.9  1.00  12169.03  1216902.67
741.2  1.00  12245.14  1224514.33
742.5  1.00  12376.17  1237617.33
743.8  1.00  12566.98  1256697.67
745.1  1.00  12828.35  1282835.33
746.4  1.00  13111.37  1311137.33
747.7  1.00  13405.31  1340531.00
749.0  1.00  13685.53  1368553.00
750.3  1.00  13839.76  1383976.00
751.6  1.00  13839.85  1383984.67
752.9  1.00  13758.88  1375888.00
754.2  1.00  13650.39  1365038.67
755.4  1.00  13530.68  1353068.33
756.7  1.00  13523.35  1352335.33
758.0  1.00  13580.27  1358026.67
759.3  1.00  13713.49  1371349.00
760.6  1.00  13890.39  1389039.00
761.9  1.00  14048.49  1404849.33
763.1  1.00  14144.13  1414412.67
764.4  1.00  14259.45  1425945.33
765.7  1.00  14351.78  1435178.33
767.0  1.00  14428.62  1442862.00
768.2  1.00  14501.98  1450198.00
769.5  1.00  14566.07  1456606.67
770.8  1.00  14652.04  1465204.00
772.0  1.00  14696.15  1469615.33
773.3  1.00  14764.29  1476429.33
774.6  1.00  14828.33  1482833.33
775.8  1.00  14868.53  1486852.67
777.1  1.00  14896.93  1489692.67
778.4  1.00  14886.78  1488678.00
779.6  1.00  14909.11  1490911.33
780.9  1.00  14912.53  1491253.33
782.1  1.00  14891.77  1489177.33
783.4  1.00  14904.17  1490417.00
784.6  1.00  14938.06  1493805.67
785.9  1.00  15074.21  1507420.67
787.1  1.00  15296.24  1529623.67
788.4  1.00  15424.39  1542438.67
789.6  1.00  15366.35  1536635.00
790.9  1.00  15210.73  1521072.67
792.1  1.00  15074.00  1507399.67
793.4  1.00  14934.71  1493470.67
794.6  1.00  14830.85  1483084.67
795.8  1.00  14751.04  1475104.00
797.1  1.00  14667.76  1466776.00
798.3  1.00  14619.22  1461922.33
799.5  1.00  14585.97  1458596.67
800.8  1.00  14554.78  1455478.33
802.0  1.00  14516.73  1451673.33
803.2  1.00  14461.59  1446159.00
804.5  1.00  14424.96  1442496.33
805.7  1.00  14381.55  1438154.67
806.9  1.00  14341.24  1434123.67
808.1  1.00  14326.28  1432627.67
809.4  1.00  14313.39  1431339.33
810.6  1.00  14289.43  1428942.67
811.8  1.00  14290.89  1429089.33
813.0  1.00  14309.97  1430997.00
814.2  1.00  14330.57  1433057.33
815.4  1.00  14362.48  1436248.00
816.6  1.00  14381.79  1438178.67
817.9  1.00  14387.79  1438779.00
819.1  1.00  14358.72  1435872.33
820.3  1.00  14314.43  1431443.00
821.5  1.00  14293.10  1429310.00
822.7  1.00  14273.79  1427378.67
823.9  1.00  14266.54  1426654.33
825.1  1.00  14259.88  1425988.33
826.3  1.00  14255.58  1425557.67
827.5  1.00  14262.78  1426277.67
828.7  1.00  14256.08  1425608.00
829.9  1.00  14261.63  1426162.67
831.0  1.00  14290.76  1429075.67
832.2  1.00  14322.35  1432235.33
833.4  1.00  14339.94  1433993.67
834.6  1.00  14373.13  1437313.00
835.8  1.00  14398.65  1439865.33
837.0  1.00  14454.11  1445411.00
838.1  1.00  14513.52  1451352.00
839.3  1.00  14553.51  1455351.00
840.5  1.00  14607.26  1460726.00
841.7  1.00  14689.30  1468929.67
842.9  1.00  14772.13  1477213.33
844.0  1.00  14829.90  1482990.33
845.2  1.00  14899.40  1489940.33
846.4  1.00  14951.67  1495167.00
847.5  1.00  15044.21  1504421.00
848.7  1.00  15119.69  1511969.00
849.9  1.00  15174.44  1517443.67
851.0  1.00  15186.63  1518663.00
852.2  1.00  15212.30  1521230.00
853.3  1.00  15211.21  1521121.33
854.5  1.00  15209.45  1520945.00
855.6  1.00  15224.14  1522414.33
856.8  1.00  15263.84  1526384.33
857.9  1.00  15271.15  1527115.00
859.1  1.00  15319.79  1531978.67
860.2  1.00  15333.67  1533366.67
861.4  1.00  15359.26  1535926.00
862.5  1.00  15391.24  1539123.67
863.7  1.00  15427.41  1542741.00
864.8  1.00  15447.51  1544750.67
865.9  1.00  15447.73  1544772.67
867.1  1.00  15465.31  1546530.67
868.2  1.00  15483.22  1548321.67
869.3  1.00  15484.78  1548478.33
870.5  1.00  15469.43  1546942.67
871.6  1.00  15486.54  1548653.67
872.7  1.00  15529.71  1552971.00
873.9  1.00  15523.79  1552379.00
875.0  1.00  15515.43  1551542.67
876.1  1.00  15503.59  1550359.33
877.2  1.00  15516.71  1551670.67
878.3  1.00  15504.14  1550414.00
879.4  1.00  15512.00  1551200.00
880.5  1.00  15521.69  1552168.67
881.7  1.00  15515.89  1551589.00
882.8  1.00  15513.89  1551389.33
883.9  1.00  15499.02  1549902.33
885.0  1.00  15458.26  1545826.33
886.1  1.00  15417.74  1541773.67
887.2  1.00  15327.66  1532766.00
888.3  1.00  15275.86  1527586.00
889.4  1.00  15207.58  1520757.67
890.5  1.00  15171.62  1517162.33
891.6  1.00  15133.14  1513314.00
892.7  1.00  15117.77  1511777.00
893.8  1.00  15135.61  1513561.33
894.9  1.00  15125.37  1512536.67
896.0  1.00  15084.14  1508414.00
897.0  1.00  15077.29  1507729.00
898.1  1.00  15071.14  1507113.67
899.2  1.00  15057.95  1505795.00
900.3  1.00  15022.12  1502212.33
901.4  1.00  14972.75  1497275.33
902.4  1.00  14967.02  1496701.67
903.5  1.00  14932.48  1493248.00
904.6  1.00  14925.92  1492592.33
905.7  1.00  14890.80  1489080.33
906.7  1.00  14864.88  1486488.00
907.8  1.00  14853.56  1485356.00
908.9  1.00  14810.77  1481076.67
909.9  1.00  14766.76  1476675.67
911.0  1.00  14734.13  1473413.33
912.1  1.00  14676.44  1467644.33
913.1  1.00  14622.40  1462240.00
914.2  1.00  14568.28  1456827.67
915.2  1.00  14549.44  1454943.67
916.3  1.00  14515.55  1451555.00
917.3  1.00  14466.11  1446610.67
918.4  1.00  14401.02  1440101.67
919.4  1.00  14336.25  1433625.33
920.5  1.00  14301.54  1430154.00
921.5  1.00  14262.68  1426268.00
922.6  1.00  14189.39  1418938.67
923.6  1.00  14177.94  1417794.00
924.7  1.00  14130.52  1413051.67
925.7  1.00  14065.87  1406587.00
926.7  1.00  14033.56  1403355.67
927.8  1.00  13989.81  1398980.67
928.8  1.00  13963.63  1396362.67
929.9  1.00  13951.88  1395187.67
930.9  1.00  13962.08  1396208.00
931.9  1.00  13978.16  1397816.00
932.9  1.00  14007.08  1400708.00
934.0  1.00  13950.86  1395085.67
935.0  1.00  13897.85  1389785.00
936.0  1.00  13842.86  1384285.67
937.0  1.00  13772.82  1377282.33
938.1  1.00  13698.53  1369853.00
939.1  1.00  13653.48  1365348.33
940.1  1.00  13605.70  1360570.33
941.1  1.00  13623.79  1362379.00
942.1  1.00  13633.94  1363394.00
943.1  1.00  13622.70  1362269.67
944.1  1.00  13643.52  1364352.33
945.2  1.00  13586.80  1358680.33
946.2  1.00  13522.31  1352231.33
947.2  1.00  13493.60  1349359.67
948.2  1.00  13455.18  1345518.00
949.2  1.00  13396.29  1339628.67
950.2  1.00  13342.82  1334281.67
951.2  1.00  13271.83  1327183.33
952.2  1.00  13202.59  1320259.00
953.2  1.00  13170.73  1317073.33
954.2  1.00  13133.34  1313334.33
955.2  1.00  13061.20  1306120.00
956.2  1.00  13005.13  1300513.33
957.2  1.00  12962.52  1296251.67
958.2  1.00  12923.15  1292315.00
959.2  1.00  12904.86  1290486.00
960.1  1.00  12887.54  1288754.33
961.1  1.00  12883.87  1288387.33
962.1  1.00  12867.75  1286775.00
963.1  1.00  12854.88  1285488.33
964.1  1.00  12876.27  1287626.67
965.1  1.00  12902.15  1290215.00
966.1  1.00  12868.44  1286843.67
967.0  1.00  12902.69  1290269.33
968.0  1.00  12897.95  1289795.00
969.0  1.00  12925.60  1292560.00
970.0  1.00  12930.07  1293007.00
971.0  1.00  12955.55  1295555.33
971.9  1.00  12991.20  1299120.00
972.9  1.00  12998.59  1299859.33
973.9  1.00  13037.77  1303776.67
974.9  1.00  13024.56  1302456.00
975.8  1.00  13037.03  1303702.67
976.8  1.00  13022.91  1302291.33
977.8  1.00  13089.19  1308918.67
978.8  1.00  13122.87  1312287.00
979.7  1.00  13164.53  1316453.00
980.7  1.00  13268.25  1326825.33
981.7  1.00  13359.18  1335918.33
982.6  1.00  13478.01  1347800.67
983.6  1.00  13699.52  1369952.00
984.6  1.00  13850.60  1385060.00
985.5  1.00  14063.71  1406371.00
986.5  1.00  14312.42  1431241.67
987.5  1.00  14658.69  1465869.33
988.4  1.00  14916.66  1491666.00
989.4  1.00  15163.60  1516359.67
990.4  1.00  15463.09  1546309.00
991.3  1.00  15872.01  1587201.33
992.3  1.00  16120.12  1612011.67
993.2  1.00  16530.43  1653043.33
994.2  1.00  16749.43  1674942.67
995.2  1.00  16935.56  1693556.33
996.1  1.00  16769.04  1676904.00
997.1  1.00  16937.18  1693718.00
998.0  1.00  16855.92  1685592.00
999.0  1.00  16717.65  1671765.00
1000.0  1.00  16725.67  1672567.00
1000.9  1.00  16867.61  1686760.67
1001.9  1.00  16595.81  1659580.67
1002.8  1.00  16948.71  1694871.00
1003.8  1.00  16583.68  1658367.67
1004.8  1.00  16428.96  1642896.00
961.5  1.00  13664.25  1366425.00
965.5  1.00  13647.36  1364736.00
969.5  1.00  13748.27  1374827.00
973.4  1.00  13523.40  1352340.00
977.4  1.00  13132.34  1313234.33
981.4  1.00  13034.59  1303458.67
985.3  1.00  13002.73  1300273.33
989.3  1.00  13033.51  1303350.67
993.3  1.00  13063.52  1306352.33
997.2  1.00  13055.13  1305512.67
1001.2  1.00  13107.08  1310707.67
1005.2  1.00  13210.40  1321040.33
1009.1  1.00  13385.45  1338544.67
1013.1  1.00  13594.36  1359436.00
1017.1  1.00  13768.42  1376841.67
1021.0  1.00  13899.75  1389975.33
1025.0  1.00  14027.95  1402795.33
1029.0  1.00  14109.69  1410968.67
1032.9  1.00  14208.00  1420800.33
1036.9  1.00  14343.90  1434390.00
1040.9  1.00  14516.95  1451694.67
1044.8  1.00  14722.31  1472231.33
1048.8  1.00  14889.91  1488990.67
1052.7  1.00  15025.25  1502525.33
1056.7  1.00  15117.50  1511750.00
1060.7  1.00  15185.65  1518565.00
1064.6  1.00  15243.36  1524335.67
1068.6  1.00  15250.40  1525040.33
1072.5  1.00  15222.21  1522221.33
1076.5  1.00  15198.54  1519854.33
1080.4  1.00  15159.74  1515974.33
1084.4  1.00  15123.70  1512370.33
1088.3  1.00  15084.90  1508490.00
1092.3  1.00  14977.74  1497774.00
1096.2  1.00  14861.71  1486170.67
1100.2  1.00  14758.06  1475805.67
1104.1  1.00  14612.85  1461285.33
1108.1  1.00  14489.22  1448922.00
1112.0  1.00  14333.90  1433390.00
1116.0  1.00  14125.98  1412597.67
1119.9  1.00  13895.98  1389598.00
1123.9  1.00  13682.42  1368242.33
1127.8  1.00  13359.36  1335936.00
1131.8  1.00  12928.60  1292860.00
1135.7  1.00  12417.46  1241746.00
1139.6  1.00  11860.77  1186077.33
1143.6  1.00  11330.38  1133037.67
1147.5  1.00  10880.04  1088004.00
1151.4  1.00  10505.84  1050584.33
1155.4  1.00  10288.59  1028859.33
1159.3  1.00  10154.14  1015413.67
1163.2  1.00  10019.29  1001928.67
1167.2  1.00  9953.30  995330.00
1171.1  1.00  9900.95  990094.67
1175.0  1.00  9840.93  984093.33
1179.0  1.00  9798.63  979863.33
1182.9  1.00  9777.46  977745.67
1186.8  1.00  9741.74  974174.00
1190.7  1.00  9660.94  966093.67
1194.7  1.00  9587.25  958725.00
1198.6  1.00  9535.68  953568.33
1202.5  1.00  9506.56  950656.00
1206.4  1.00  9507.22  950721.67
1210.3  1.00  9520.62  952061.67
1214.2  1.00  9541.54  954154.33
1218.2  1.00  9572.23  957222.67
1222.1  1.00  9615.40  961540.33
1226.0  1.00  9657.57  965757.00
1229.9  1.00  9693.70  969370.00
1233.8  1.00  9723.84  972384.33
1237.7  1.00  9757.93  975793.33
1241.6  1.00  9784.24  978424.33
1245.5  1.00  9778.98  977897.67
1249.4  1.00  9781.67  978167.33
1253.3  1.00  9800.67  980067.00
1257.2  1.00  9815.89  981588.67
1261.1  1.00  9809.42  980942.33
1265.0  1.00  9788.00  978800.00
1268.9  1.00  9740.26  974025.67
1272.8  1.00  9730.85  973085.00
1276.7  1.00  9741.86  974185.67
1280.6  1.00  9714.45  971444.67
1284.5  1.00  9636.74  963674.00
1288.4  1.00  9561.73  956173.33
1292.3  1.00  9446.25  944625.00
1296.2  1.00  9308.11  930811.33
1300.1  1.00  9148.94  914894.00
1303.9  1.00  8950.96  895096.00
1307.8  1.00  8736.13  873613.00
1311.7  1.00  8514.03  851402.67
1315.6  1.00  8280.09  828008.67
1319.5  1.00  8027.78  802778.33
1323.3  1.00  7770.27  777027.33
1327.2  1.00  7518.15  751814.67
1331.1  1.00  7260.46  726045.67
1335.0  1.00  6997.96  699796.00
1338.8  1.00  6764.99  676499.00
1342.7  1.00  6553.76  655375.67
1346.5  1.00  6326.85  632685.00
1350.4  1.00  6122.29  612228.67
1354.3  1.00  5910.56  591055.67
1358.1  1.00  5696.67  569667.00
1362.0  1.00  5516.42  551642.00
1365.8  1.00  5352.22  535222.00
1369.7  1.00  5173.65  517365.00
1373.5  1.00  4916.44  491643.67
1377.4  1.00  4591.52  459152.00
1381.2  1.00  4223.89  422389.33
1385.1  1.00  3861.21  386120.67
1389.0  1.00  3496.38  349638.00
1392.8  1.00  3137.29  313729.00
1396.6  1.00  2824.84  282484.33
1400.5  1.00  2558.32  255832.00
1404.3  1.00  2351.75  235174.67
1408.2  1.00  2186.97  218697.00
1412.0  1.00  2060.85  206085.00
1415.8  1.00  1967.68  196768.33
1419.6  1.00  1891.24  189123.67
1423.5  1.00  1837.69  183768.67
1427.3  1.00  1795.58  179558.33
1431.1  1.00  1763.90  176390.00
1434.9  1.00  1736.16  173616.00
1438.8  1.00  1716.19  171619.00
1442.6  1.00  1705.61  170561.33
1446.4  1.00  1693.41  169341.00
1450.2  1.00  1687.50  168749.67
1454.0  1.00  1681.12  168112.00
1457.8  1.00  1682.02  168202.00
1461.6  1.00  1694.09  169408.67
1465.4  1.00  1708.51  170851.00
1469.2  1.00  1725.97  172596.67
1473.0  1.00  1754.05  175404.67
1476.8  1.00  1792.79  179278.67
1480.7  1.00  1839.15  183915.33
1484.4  1.00  1885.56  188556.00
1488.2  1.00  1940.28  194028.00
1492.0  1.00  2000.36  200036.00
1495.8  1.00  2054.33  205432.67
1499.6  1.00  2098.96  209896.00
1503.4  1.00  2136.99  213699.33
1507.2  1.00  2166.39  216639.33
1510.9  1.00  2193.83  219383.00
1514.7  1.00  2224.05  222404.67
1518.5  1.00  2265.69  226568.67
1522.3  1.00  2301.88  230188.00
1526.0  1.00  2342.11  234211.00
1529.8  1.00  2397.30  239729.67
1533.6  1.00  2449.75  244975.00
1537.3  1.00  2505.05  250504.67
1541.1  1.00  2558.40  255839.67
1544.8  1.00  2605.60  260560.00
1548.6  1.00  2650.81  265081.33
1552.4  1.00  2694.96  269495.67
1556.1  1.00  2729.73  272972.67
1559.9  1.00  2755.49  275549.33
1563.6  1.00  2791.95  279194.67
1567.3  1.00  2840.91  284091.33
1571.1  1.00  2875.95  287595.00
1574.8  1.00  2910.55  291054.67
1578.6  1.00  2951.57  295157.00
1582.3  1.00  2982.27  298227.00
1586.0  1.00  3006.18  300618.33
1589.8  1.00  3027.55  302755.00
1593.5  1.00  3046.54  304653.67
1597.2  1.00  3069.28  306927.67
1600.9  1.00  3085.45  308545.33
1604.7  1.00  3105.48  310547.67
1608.4  1.00  3131.81  313181.33
1612.1  1.00  3148.73  314873.00
1615.8  1.00  3163.89  316389.00
1619.5  1.00  3186.82  318682.33
1623.2  1.00  3196.94  319694.33
1626.9  1.00  3204.30  320430.33
1630.6  1.00  3221.02  322102.00
1634.3  1.00  3226.42  322642.00
1638.0  1.00  3223.51  322350.67
1641.7  1.00  3221.89  322188.67
1645.4  1.00  3215.94  321594.00
1649.1  1.00  3207.21  320720.67
1652.8  1.00  3199.17  319917.00
1656.4  1.00  3184.20  318420.33
1660.1  1.00  3165.87  316587.00
1663.8  1.00  3153.57  315357.33
1667.5  1.00  3145.09  314509.00
1671.1  1.00  3127.90  312790.33
1674.8  1.00  3106.78  310678.33
1678.5  1.00  3091.07  309107.00
1682.1  1.00  3081.54  308153.67
1685.8  1.00  3065.96  306596.00
1689.5  1.00  3034.09  303409.33
1693.1  1.00  3004.37  300437.00
1696.8  1.00  2965.58  296558.33
1700.4  1.00  2921.92  292192.00
1704.0  1.00  2883.95  288395.33
1707.7  1.00  2833.76  283375.67
1711.3  1.00  2778.10  277809.67
1715.0  1.00  2723.35  272334.67
1718.6  1.00  2676.33  267633.33
1722.2  1.00  2632.75  263274.67
1725.9  1.00  2586.74  258673.67
1729.5  1.00  2549.84  254984.33
1733.1  1.00  2528.55  252854.67
1736.7  1.00  2506.16  250615.67
1740.3  1.00  2477.23  247723.00
1744.0  1.00  2452.70  245270.33
1747.5  1.00  2415.71  241570.67
1751.2  1.00  2361.93  236192.67
1754.8  1.00  2317.43  231743.00
1758.4  1.00  2280.69  228069.33
1762.0  1.00  2232.92  223292.00
1765.5  1.00  2203.46  220345.67
1769.1  1.00  2194.40  219440.00
1772.7  1.00  2178.09  217809.33
1776.3  1.00  2153.42  215342.33
1779.9  1.00  2128.33  212833.33
1783.5  1.00  2112.13  211213.33
1787.0  1.00  2094.16  209416.00
1790.6  1.00  2082.46  208245.67
1794.2  1.00  2075.35  207534.67
1797.8  1.00  2063.06  206306.33
1801.3  1.00  2049.97  204997.33
1804.9  1.00  2041.38  204138.00
1808.4  1.00  2047.12  204712.33
1812.0  1.00  2037.16  203716.00
1815.5  1.00  2021.99  202198.67
1819.1  1.00  2010.24  201024.00
1822.6  1.00  1993.27  199326.67
1826.2  1.00  1974.95  197494.67
1829.7  1.00  1956.30  195630.33
1833.2  1.00  1932.46  193246.33
1836.8  1.00  1900.39  190038.67
1840.3  1.00  1871.36  187135.67
1843.8  1.00  1847.63  184762.67
1847.3  1.00  1823.00  182299.67
1850.8  1.00  1778.11  177811.33
1854.3  1.00  1731.27  173126.67
1857.8  1.00  1681.33  168133.33
1861.3  1.00  1622.17  162216.67
1864.8  1.00  1528.46  152846.33
1868.3  1.00  1417.59  141758.67
1871.8  1.00  1285.12  128512.00
1875.3  1.00  1162.83  116283.00
1878.8  1.00  1064.71  106471.33
1882.3  1.00  953.02  95301.67
1885.8  1.00  851.29  85128.67
1889.3  1.00  767.37  76737.00
1892.7  1.00  708.32  70832.00
1896.2  1.00  678.50  67850.33
1899.7  1.00  658.96  65896.00
1903.1  1.00  651.11  65111.33
1906.6  1.00  684.67  68467.00
1910.0  1.00  764.43  76443.00
1913.5  1.00  844.51  84451.00
1917.0  1.00  1144.68  114467.67
1920.4  1.00  1494.61  149461.00
1923.8  1.00  1535.19  153518.67
1871.2  1.00  0.00  0.00
1873.9  1.00  214.77  21476.67
1876.7  1.00  1298.05  129805.00
1879.5  1.00  0.00  0.00
1882.3  1.00  180.43  18043.33
1885.1  1.00  862.00  86200.00
1887.8  1.00  0.00  0.00
1890.6  1.00  77.97  7796.67
1893.4  1.00  660.00  66000.00
1896.2  1.00  -68.77  -6876.67
1898.9  1.00  64.23  6423.33
1901.7  1.00  587.83  58783.33
1904.5  1.00  -52.90  -5290.00
1907.2  1.00  47.50  4750.00
1910.0  1.00  432.33  43233.33
1912.7  1.00  -40.03  -4003.33
1915.5  1.00  37.63  3763.33
1918.2  1.00  357.83  35783.33
1921.0  1.00  0.00  0.00
1923.7  1.00  66.70  6670.00
1926.5  1.00  325.67  32566.67
1929.2  1.00  0.00  0.00
1932.0  1.00  126.40  12640.00
1934.7  1.00  375.20  37520.00
1937.4  1.00  0.00  0.00
1940.2  1.00  92.20  9220.00
1942.9  1.00  395.85  39585.00
1945.6  1.00  0.00  0.00
1948.3  1.00  120.33  12033.33
1951.1  1.00  391.30  39130.00
1953.8  1.00  0.00  0.00
1956.5  1.00  119.80  11980.00
1959.2  1.00  328.90  32890.00
1961.9  1.00  0.00  0.00
1964.6  1.00  178.50  17850.00
1967.3  1.00  415.33  41533.33
1970.0  1.00  29.60  2960.00
1972.8  1.00  235.33  23533.33
1975.5  1.00  439.00  43900.00
1978.2  1.00  29.20  2920.00
1980.9  1.00  145.75  14575.00
1983.5  1.00  436.25  43625.00
1986.2  1.00  0.00  0.00
1988.9  1.00  116.40  11640.00
1991.6  1.00  463.47  46346.67
1994.3  1.00  115.53  11553.33
1997.0  1.00  288.33  28833.33
1999.7  1.00  603.05  60305.00
2002.3  1.00  143.83  14383.33
2005.0  1.00  258.90  25890.00
2007.7  1.00  516.00  51600.00
2010.4  1.00  171.30  17130.00
2013.0  1.00  312.95  31295.00
2015.7  1.00  539.92  53991.67
2018.4  1.00  141.83  14183.33
2021.0  1.00  311.67  31166.67
2023.7  1.00  621.87  62186.67
2026.4  1.00  197.17  19716.67
2029.0  1.00  365.52  36551.67
2031.7  1.00  619.67  61966.67
2034.3  1.00  197.17  19716.67
2037.0  1.00  337.80  33780.00
2039.6  1.00  590.80  59080.00
2042.3  1.00  168.50  16850.00
2044.9  1.00  336.60  33660.00
2047.5  1.00  561.00  56100.00
2050.2  1.00  168.00  16800.00
2052.8  1.00  336.00  33600.00
2055.4  1.00  616.37  61636.67
2058.1  1.00  196.00  19600.00
2060.7  1.00  335.40  33540.00
2063.3  1.00  585.20  58520.00
2065.9  1.00  195.42  19541.67
2068.6  1.00  390.83  39083.33
2071.2  1.00  641.70  64170.00
2073.8  1.00  223.87  22386.67
2076.4  1.00  421.00  42100.00
2079.0  1.00  646.30  64630.00
2081.6  1.00  225.07  22506.67
2084.2  1.00  423.25  42325.00
2086.8  1.00  650.52  65051.67
2089.4  1.00  226.93  22693.33
2092.1  1.00  425.00  42500.00
2094.7  1.00  678.00  67800.00
2097.2  1.00  255.00  25500.00
2099.8  1.00  455.47  45546.67
2102.4  1.00  710.83  71083.33
2105.0  1.00  313.50  31350.00
2107.6  1.00  484.22  48421.67
2110.2  1.00  738.83  73883.33
2112.8  1.00  343.60  34360.00
2115.3  1.00  490.73  49073.33
2117.9  1.00  725.42  72541.67
2120.5  1.00  291.50  29150.00
2123.1  1.00  468.00  46800.00
2125.6  1.00  702.80  70280.00
2128.2  1.00  292.67  29266.67
2130.8  1.00  497.25  49725.00
2133.3  1.00  762.67  76266.67
2135.9  1.00  323.58  32358.33
2138.4  1.00  559.87  55986.67
2141.0  1.00  763.97  76396.67
2143.6  1.00  351.80  35180.00
2146.1  1.00  499.52  49951.67
2148.7  1.00  763.53  76353.33
2151.2  1.00  322.67  32266.67
2153.8  1.00  470.93  47093.33
2156.3  1.00  767.87  76786.67
2158.8  1.00  324.87  32486.67
2161.4  1.00  471.73  47173.33
2163.9  1.00  707.60  70760.00
2166.4  1.00  236.53  23653.33
2169.0  1.00  413.93  41393.33
2171.5  1.00  709.60  70960.00
2174.0  1.00  297.50  29750.00
2176.5  1.00  478.40  47840.00
2179.1  1.00  752.92  75291.67
2181.6  1.00  273.75  27375.00
2184.1  1.00  462.00  46200.00
2186.6  1.00  753.20  75320.00
2189.1  1.00  256.80  25680.00
2191.6  1.00  424.67  42466.67
2194.1  1.00  697.55  69755.00
2196.6  1.00  237.77  23776.67
2199.2  1.00  488.37  48836.67
2201.7  1.00  752.15  75215.00
2204.1  1.00  219.90  21990.00
2206.6  1.00  447.60  44760.00
2209.1  1.00  757.00  75700.00
2211.6  1.00  228.40  22840.00
2214.1  1.00  418.18  41818.33
2216.6  1.00  721.68  72168.33
2219.1  1.00  151.93  15193.33
2221.6  1.00  380.67  38066.67
2224.0  1.00  723.90  72390.00
2226.5  1.00  190.25  19025.00
2229.0  1.00  380.67  38066.67
2231.5  1.00  766.00  76600.00
2233.9  1.00  192.42  19241.67
2236.4  1.00  386.00  38600.00
2238.9  1.00  697.50  69750.00
2241.3  1.00  233.20  23320.00
2243.8  1.00  388.67  38866.67
2246.2  1.00  697.80  69780.00
2248.7  1.00  77.13  7713.33
2251.2  1.00  307.47  30746.67
2253.6  1.00  652.80  65280.00
2256.1  1.00  76.80  7680.00
2258.5  1.00  345.75  34575.00
2260.9  1.00  651.95  65195.00
2263.4  1.00  115.15  11515.00
2265.8  1.00  307.73  30773.33
2268.3  1.00  615.73  61573.33
2270.7  1.00  76.77  7676.67
2273.1  1.00  268.45  26845.00
2275.6  1.00  614.40  61440.00
2278.0  1.00  0.00  0.00
2280.4  1.00  192.42  19241.67
2282.8  1.00  542.03  54203.33
2285.3  1.00  38.88  3888.33
2287.7  1.00  234.30  23430.00
2290.1  1.00  553.47  55346.67
2292.5  1.00  0.00  0.00
2294.9  1.00  197.58  19758.33
2297.3  1.00  593.25  59325.00
2299.7  1.00  0.00  0.00
2302.1  1.00  157.13  15713.33
2304.5  1.00  509.60  50960.00
2306.9  1.00  0.00  0.00
2309.3  1.00  156.73  15673.33
2311.7  1.00  471.00  47100.00
2314.1  1.00  0.00  0.00
2316.5  1.00  197.00  19700.00
2318.9  1.00  591.25  59125.00
2321.3  1.00  0.00  0.00
2323.7  1.00  119.80  11980.00
2326.1  1.00  483.60  48360.00
2328.4  1.00  0.00  0.00
2330.8  1.00  163.60  16360.00
2333.2  1.00  453.02  45301.67
2335.6  1.00  0.00  0.00
2337.9  1.00  166.93  16693.33
2340.3  1.00  503.80  50380.00
2342.7  1.00  0.00  0.00
2345.0  1.00  84.93  8493.33
2347.4  1.00  510.00  51000.00
2349.7  1.00  0.00  0.00
2352.1  1.00  42.88  4288.33
2354.4  1.00  386.85  38685.00
2356.8  1.00  0.00  0.00
2359.2  1.00  43.33  4333.33
2361.5  1.00  436.33  43633.33
2363.8  1.00  -43.92  -4391.67
2366.2  1.00  44.13  4413.33
2368.5  1.00  445.00  44500.00
2370.9  1.00  -44.73  -4473.33
2373.2  1.00  44.97  4496.67
2375.5  1.00  407.25  40725.00
2377.9  1.00  -45.58  -4558.33
2380.2  1.00  45.82  4581.67
2382.5  1.00  367.60  36760.00
2384.8  1.00  0.00  0.00
2387.2  1.00  46.88  4688.33
2389.5  1.00  424.95  42495.00
2391.8  1.00  0.00  0.00
2394.1  1.00  47.98  4798.33
2396.4  1.00  387.07  38706.67
2398.7  1.00  -48.72  -4871.67
2401.0  1.00  49.45  4945.00
2403.3  1.00  398.40  39840.00
2405.6  1.00  0.00  0.00
2407.9  1.00  0.00  0.00
2410.2  1.00  401.07  40106.67
2412.5  1.00  -50.82  -5081.67
2414.8  1.00  0.00  0.00
2417.1  1.00  309.70  30970.00
2419.4  1.00  -104.20  -10420.00
2421.7  1.00  0.00  0.00
2424.0  1.00  422.67  42266.67
2426.2  1.00  -160.50  -16050.00
2428.5  1.00  0.00  0.00
2430.8  1.00  381.50  38150.00
2433.1  1.00  -110.63  -11063.33
2435.4  1.00  0.00  0.00
2437.6  1.00  335.70  33570.00
2439.9  1.00  -112.30  -11230.00
2442.2  1.00  0.00  0.00
2444.4  1.00  287.17  28716.67
2446.7  1.00  -116.80  -11680.00
2448.9  1.00  0.00  0.00
2451.2  1.00  298.00  29800.00
2453.4  1.00  -241.07  -24106.67
2455.7  1.00  0.00  0.00
2457.9  1.00  366.30  36630.00
2460.2  1.00  -61.65  -6165.00
2462.4  1.00  0.00  0.00
2464.7  1.00  378.50  37850.00
2466.9  1.00  -192.60  -19260.00
2469.2  1.00  0.00  0.00
2471.4  1.00  393.90  39390.00
2473.6  1.00  -267.80  -26780.00
2475.9  1.00  0.00  0.00
2478.1  1.00  478.22  47821.67
2480.3  1.00  -278.47  -27846.67
2482.5  1.00  0.00  0.00
2484.8  1.00  364.08  36408.33
2487.0  1.00  -222.20  -22220.00
2489.2  1.00  0.00  0.00
2491.4  1.00  461.10  46110.00
2493.6  1.00  -156.77  -15676.67
2495.8  1.00  0.00  0.00
2498.0  1.00  486.40  48640.00
2500.2  1.00  -505.50  -50550.00
2502.4  1.00  -88.80  -8880.00
2504.6  1.00  281.70  28170.00
2506.8  1.00  -97.42  -9741.67
