/*** Spectra Vista SIG Data ***/
name= GS2.sig
comm= Resampled spectral data SIG file reprocesed for matching/overlap;Averaged Ref/Tar of files: GD4S4,GD4S5,GD4S6
data=
346.0  1.00  69.43  6943.00
356.0  1.00  78.77  7876.81
366.0  1.00  85.35  8535.00
376.0  1.00  90.75  9074.73
386.0  1.00  91.61  9160.73
396.0  1.00  124.62  12462.19
406.0  1.00  135.60  13559.62
416.0  1.00  176.98  17698.25
426.0  1.00  205.38  20538.00
436.0  1.00  244.58  24458.13
446.0  1.00  307.45  30745.39
456.0  1.00  390.26  39026.32
466.0  1.00  488.00  48800.39
476.0  1.00  583.47  58346.93
486.0  1.00  653.91  65391.39
496.0  1.00  883.00  88300.42
506.0  1.00  1265.32  126531.75
516.0  1.00  1709.65  170965.00
526.0  1.00  2281.07  228107.07
536.0  1.00  2851.21  285121.33
546.0  1.00  3327.30  332729.73
556.0  1.00  3457.90  345789.89
566.0  1.00  3696.43  369642.83
576.0  1.00  3937.92  393791.76
586.0  1.00  4094.76  409475.97
596.0  1.00  4238.43  423843.29
606.0  1.00  4201.69  420169.00
616.0  1.00  4218.99  421899.28
626.0  1.00  4389.74  438974.15
636.0  1.00  4314.48  431447.95
646.0  1.00  3923.30  392329.57
656.0  1.00  3554.68  355467.71
666.0  1.00  2923.31  292330.51
676.0  1.00  2788.62  278862.00
686.0  1.00  3962.60  396259.58
696.0  1.00  7023.34  702334.15
706.0  1.00  9679.98  967998.33
716.0  1.00  11033.59  1103358.55
726.0  1.00  11623.52  1162351.70
736.0  1.00  11932.09  1193209.00
746.0  1.00  13024.28  1302428.49
756.0  1.00  13527.30  1352729.70
766.0  1.00  14369.51  1436951.18
776.0  1.00  14872.90  1487289.95
786.0  1.00  15092.71  1509270.87
796.0  1.00  14738.23  1473822.68
806.0  1.00  14371.47  1437147.30
816.0  1.00  14372.14  1437213.50
826.0  1.00  14256.65  1425665.49
836.0  1.00  14407.89  1440789.38
846.0  1.00  14934.25  1493424.58
856.0  1.00  15237.37  1523737.40
866.0  1.00  15449.19  1544919.47
876.0  1.00  15504.67  1550466.61
886.0  1.00  15421.42  1542142.28
896.0  1.00  15084.14  1508414.00
906.0  1.00  14883.02  1488302.43
916.0  1.00  14524.79  1452479.26
926.0  1.00  14056.18  1405617.74
936.0  1.00  13842.86  1384286.00
946.0  1.00  13535.21  1353520.88
956.0  1.00  13016.34  1301634.47
966.0  1.00  12871.81  1287181.02
976.0  1.00  13034.21  1303420.58
986.0  1.00  13008.12  1300811.66
996.0  1.00  13057.71  1305771.15
1006.0  1.00  13246.31  1324630.75
1016.0  1.00  13720.55  1372055.46
1026.0  1.00  14048.39  1404838.50
1036.0  1.00  14313.32  1431332.17
1046.0  1.00  14772.59  1477258.80
1056.0  1.00  15101.36  1510135.74
1066.0  1.00  15245.82  1524582.40
1076.0  1.00  15201.50  1520149.88
1086.0  1.00  15107.78  1510778.24
1096.0  1.00  14867.66  1486765.90
1106.0  1.00  14554.12  1455412.50
1116.0  1.00  14125.98  1412598.00
1126.0  1.00  13508.47  1350846.77
1136.0  1.00  12374.63  1237463.10
1146.0  1.00  11053.25  1105324.66
1156.0  1.00  10267.91  1026790.64
1166.0  1.00  9973.10  997309.62
1176.0  1.00  9830.36  983035.50
1186.0  1.00  9749.07  974906.76
1196.0  1.00  9570.06  957005.95
1206.0  1.00  9507.15  950715.23
1216.0  1.00  9555.35  955535.09
1226.0  1.00  9657.57  965757.00
1236.0  1.00  9743.07  974307.03
1246.0  1.00  9779.32  977932.49
1256.0  1.00  9811.21  981120.70
1266.0  1.00  9775.76  977575.91
1276.0  1.00  9739.88  973988.39
1286.0  1.00  9607.89  960789.02
1296.0  1.00  9315.19  931519.26
1306.0  1.00  8835.28  883528.44
1316.0  1.00  8254.21  825421.06
1326.0  1.00  7595.72  759572.42
1336.0  1.00  6936.65  693665.29
1346.0  1.00  6356.71  635670.62
1356.0  1.00  5814.87  581487.33
1366.0  1.00  5343.06  534306.46
1376.0  1.00  4708.16  470815.93
1386.0  1.00  3777.02  377701.67
1396.0  1.00  2874.17  287417.32
1406.0  1.00  2279.92  227992.31
1416.0  1.00  1963.66  196365.77
1426.0  1.00  1809.99  180998.64
1436.0  1.00  1730.53  173052.76
1446.0  1.00  1694.69  169469.43
1456.0  1.00  1681.59  168159.37
1466.0  1.00  1711.27  171126.68
1476.0  1.00  1784.63  178463.38
1486.0  1.00  1908.60  190860.01
1496.0  1.00  2056.68  205667.84
1506.0  1.00  2157.11  215710.60
1516.0  1.00  2238.30  223829.56
1526.0  1.00  2342.11  234211.00
1536.0  1.00  2485.62  248561.99
1546.0  1.00  2619.88  261987.65
1556.0  1.00  2728.79  272879.05
1566.0  1.00  2823.71  282370.75
1576.0  1.00  2923.50  292350.34
1586.0  1.00  3006.18  300618.00
1596.0  1.00  3061.91  306190.51
1606.0  1.00  3114.73  311473.12
1616.0  1.00  3165.13  316512.92
1626.0  1.00  3202.51  320250.97
1636.0  1.00  3225.08  322508.30
1646.0  1.00  3214.52  321452.44
1656.0  1.00  3185.86  318586.34
1666.0  1.00  3148.53  314852.79
1676.0  1.00  3101.69  310168.50
1686.0  1.00  3064.24  306423.77
1696.0  1.00  2973.97  297396.74
1706.0  1.00  2856.82  285681.99
1716.0  1.00  2710.29  271028.88
1726.0  1.00  2585.72  258571.52
1736.0  1.00  2510.51  251051.33
1746.0  1.00  2431.56  243156.29
1756.0  1.00  2305.18  230518.37
1766.0  1.00  2202.20  220220.17
1776.0  1.00  2155.48  215547.61
1786.0  1.00  2099.29  209929.43
1796.0  1.00  2069.21  206920.50
1806.0  1.00  2043.18  204318.40
1816.0  1.00  2020.36  202035.80
1826.0  1.00  1975.97  197596.75
1836.0  1.00  1907.52  190751.69
1846.0  1.00  1832.15  183214.86
1856.0  1.00  1707.01  170701.41
1866.0  1.00  1490.45  149044.90
1876.0  1.00  1143.21  114320.74
1886.0  1.00  846.50  84649.57
1896.0  1.00  680.20  68020.36
1906.0  1.00  2.88  287.88
1916.0  1.00  96.93  9692.74
1926.0  1.00  279.43  27942.62
1936.0  1.00  194.55  19454.63
1946.0  1.00  17.83  1782.73
1956.0  1.00  97.61  9761.44
1966.0  1.00  301.30  30129.96
1976.0  1.00  363.11  36310.97
1986.0  1.00  32.31  3230.75
1996.0  1.00  224.33  22432.88
2006.0  1.00  354.12  35412.39
2016.0  1.00  495.68  49568.18
2026.0  1.00  260.09  26009.07
2036.0  1.00  285.71  28571.39
2046.0  1.00  431.54  43153.72
2056.0  1.00  522.95  52294.60
2066.0  1.00  202.66  20266.40
2076.0  1.00  390.68  39067.80
2086.0  1.00  580.59  58058.91
2096.0  1.00  458.03  45803.17
2106.0  1.00  379.16  37915.91
2116.0  1.00  553.91  55391.49
2126.0  1.00  639.71  63971.49
2136.0  1.00  333.04  33304.08
2146.0  1.00  493.61  49360.54
2156.0  1.00  732.23  73223.14
2166.0  1.00  311.88  31188.28
2176.0  1.00  442.22  44222.00
2186.0  1.00  683.30  68330.06
2196.0  1.00  348.14  34813.52
2206.0  1.00  392.94  39294.31
2216.0  1.00  648.83  64882.81
2226.0  1.00  296.98  29698.00
2236.0  1.00  355.03  35503.48
2246.0  1.00  672.04  67204.44
2256.0  1.00  99.86  9986.25
2266.0  1.00  332.36  33236.40
2276.0  1.00  512.02  51202.08
2286.0  1.00  95.88  9587.58
2296.0  1.00  378.93  37893.38
2306.0  1.00  191.09  19108.70
2316.0  1.00  155.96  15595.67
2326.0  1.00  468.43  46842.78
2336.0  1.00  29.03  2902.67
2346.0  1.00  262.05  26204.97
2356.0  1.00  128.95  12895.00
2366.0  1.00  36.79  3679.40
2376.0  1.00  312.91  31290.66
2386.0  1.00  23.44  2344.00
2396.0  1.00  328.11  32810.72
2406.0  1.00  0.00  0.00
2416.0  1.00  161.57  16157.26
2426.0  1.00  -107.50  -10749.63
2436.0  1.00  91.56  9156.13
2446.0  1.00  6.14  613.62
2456.0  1.00  49.96  4995.92
2466.0  1.00  41.01  4101.17
2476.0  1.00  21.76  2175.66
2486.0  1.00  44.30  4429.68
2496.0  1.00  44.21  4420.84
2506.0  1.00  40.45  4045.33
