/*** Spectra Vista SIG Data ***/
name= RT1.sig
comm= Resampled spectral data SIG file reprocesed for matching/overlap;Averaged Ref/Tar of files: RD5T1,RD5T2,RD5T3
data=
346.0  366.28  66.25  18.09
356.0  580.02  79.41  13.69
366.0  764.64  86.41  11.30
376.0  1054.72  96.02  9.10
386.0  1321.48  95.99  7.26
396.0  1668.03  117.13  7.02
406.0  2032.56  115.11  5.66
416.0  2484.09  136.20  5.48
426.0  2825.64  142.89  5.06
436.0  3449.00  162.73  4.72
446.0  4016.12  189.18  4.71
456.0  4559.32  203.23  4.46
466.0  5430.31  242.49  4.47
476.0  6200.82  278.92  4.50
486.0  6683.18  299.24  4.48
496.0  7759.25  351.25  4.53
506.0  8620.16  405.64  4.71
516.0  8958.85  443.37  4.95
526.0  9944.82  519.25  5.22
536.0  11306.85  630.35  5.57
546.0  12443.50  757.78  6.09
556.0  12537.38  829.73  6.62
566.0  13373.89  975.42  7.29
576.0  14717.24  1206.45  8.20
586.0  15778.76  1464.64  9.28
596.0  16643.71  1733.47  10.42
606.0  16939.11  1965.19  11.60
616.0  18066.83  2354.73  13.03
626.0  19907.23  2888.12  14.51
636.0  19564.29  3174.39  16.23
646.0  19659.63  3446.30  17.53
656.0  19192.34  3530.83  18.40
666.0  20282.32  3670.18  18.10
676.0  21596.49  4341.89  20.10
686.0  23461.59  5800.00  24.72
696.0  24117.97  6922.99  28.70
706.0  24329.51  7757.82  31.89
716.0  23886.32  8300.64  34.75
726.0  23086.04  8665.27  37.53
736.0  22569.89  9024.93  39.99
746.0  23814.03  10114.13  42.47
756.0  24266.56  10995.65  45.31
766.0  25278.75  12043.95  47.64
776.0  25925.56  12969.61  50.03
786.0  26060.85  13623.26  52.27
796.0  25580.60  14003.37  54.74
806.0  24835.91  14117.28  56.84
816.0  24700.16  14510.87  58.75
826.0  24523.61  14790.44  60.31
836.0  24895.68  15243.80  61.23
846.0  25503.02  15902.60  62.36
856.0  25926.24  16474.74  63.54
866.0  26083.86  16818.15  64.48
876.0  26142.33  17048.26  65.21
886.0  26278.55  17211.75  65.50
896.0  26059.51  17071.37  65.51
906.0  26042.54  16997.84  65.27
916.0  25872.97  16666.81  64.42
926.0  25848.12  16118.34  62.36
936.0  26639.41  15631.45  58.68
946.0  27323.34  14802.29  54.17
956.0  27983.10  13593.40  48.58
966.0  28580.08  13107.51  45.86
976.0  29061.46  13065.71  44.96
986.0  29600.63  13712.12  46.32
996.0  29854.54  14090.92  47.20
1006.0  29773.67  14621.34  49.11
1016.0  29961.72  15390.25  51.37
1026.0  29958.18  16096.16  53.73
1036.0  29727.72  16724.32  56.26
1046.0  29945.01  17495.37  58.42
1056.0  30102.43  18088.76  60.09
1066.0  30105.99  18370.14  61.02
1076.0  29996.46  18341.82  61.15
1086.0  30084.70  18156.26  60.35
1096.0  30105.40  17724.03  58.87
1106.0  30068.25  17145.44  57.02
1116.0  29868.35  16397.92  54.90
1126.0  29809.45  15305.62  51.34
1136.0  29822.39  13346.09  44.75
1146.0  29809.91  11123.64  37.32
1156.0  29735.93  9783.25  32.90
1166.0  29672.84  9275.56  31.26
1176.0  29648.36  9057.61  30.55
1186.0  29704.47  8911.08  30.00
1196.0  29371.18  8701.81  29.63
1206.0  29121.56  8643.83  29.68
1216.0  28966.90  8688.24  29.99
1226.0  28785.60  8786.55  30.52
1236.0  28657.09  8904.68  31.07
1246.0  28484.90  8966.07  31.48
1256.0  28333.73  9007.65  31.79
1266.0  28154.79  8959.53  31.82
1276.0  28214.44  8874.51  31.45
1286.0  28244.54  8666.33  30.68
1296.0  28080.90  8264.64  29.43
1306.0  27749.33  7666.75  27.63
1316.0  27339.86  6960.60  25.46
1326.0  26940.91  6192.92  22.99
1336.0  26516.39  5475.95  20.65
1346.0  26100.07  4871.65  18.67
1356.0  25456.23  4349.54  17.09
1366.0  25028.25  3910.96  15.63
1376.0  24975.46  3402.39  13.62
1386.0  24740.24  2729.02  11.03
1396.0  24477.47  2137.69  8.73
1406.0  24216.63  1775.90  7.33
1416.0  24200.46  1594.41  6.59
1426.0  24158.30  1502.78  6.22
1436.0  24072.41  1451.56  6.03
1446.0  23956.60  1423.44  5.94
1456.0  23813.94  1408.76  5.92
1466.0  23700.42  1412.42  5.96
1476.0  23484.85  1434.37  6.11
1486.0  23331.72  1487.00  6.37
1496.0  23130.98  1560.71  6.75
1506.0  22945.06  1568.39  6.84
1516.0  22702.48  1583.28  6.97
1526.0  22502.83  1628.60  7.24
1536.0  22328.41  1690.82  7.57
1546.0  22104.85  1747.71  7.91
1556.0  21942.04  1813.48  8.26
1566.0  21758.45  1857.12  8.54
1576.0  21478.18  1920.83  8.94
1586.0  21278.88  1959.13  9.21
1596.0  21035.80  1980.36  9.41
1606.0  20794.20  2004.60  9.64
1616.0  20552.01  2025.00  9.85
1626.0  20323.44  2051.57  10.09
1636.0  20065.83  2065.61  10.29
1646.0  19774.62  2068.14  10.46
1656.0  19480.49  2054.57  10.55
1666.0  19194.30  2034.78  10.60
1676.0  18944.19  1992.60  10.52
1686.0  18931.40  1967.11  10.39
1696.0  18711.77  1916.13  10.24
1706.0  18450.64  1847.10  10.01
1716.0  18035.90  1751.74  9.71
1726.0  17776.34  1661.20  9.35
1736.0  17557.88  1609.77  9.17
1746.0  17326.38  1552.48  8.96
1756.0  17015.40  1474.79  8.67
1766.0  16759.66  1418.88  8.47
1776.0  16615.26  1382.11  8.32
1786.0  16444.78  1339.24  8.14
1796.0  16217.15  1309.77  8.08
1806.0  16004.96  1289.68  8.06
1816.0  15766.24  1270.46  8.06
1826.0  15451.08  1246.11  8.06
1836.0  15063.08  1198.93  7.96
1846.0  14855.31  1168.30  7.86
1856.0  14691.59  1128.82  7.68
1866.0  14522.35  1025.99  7.06
1876.0  14253.69  881.26  6.18
1886.0  14110.56  764.13  5.42
1896.0  13808.32  686.44  4.97
1906.0  12793.00  530.57  4.15
1916.0  12616.65  512.40  4.06
1926.0  12521.17  492.77  3.94
1936.0  12420.38  497.09  4.00
1946.0  12399.95  509.35  4.11
1956.0  12267.23  512.79  4.18
1966.0  12255.75  504.38  4.12
1976.0  12167.54  521.96  4.29
1986.0  11984.38  516.20  4.31
1996.0  11804.14  538.88  4.57
2006.0  11722.12  518.05  4.42
2016.0  11520.71  516.66  4.48
2026.0  11331.47  516.74  4.56
2036.0  11153.81  522.76  4.69
2046.0  11015.78  524.43  4.76
2056.0  10803.98  520.73  4.82
2066.0  10617.95  517.70  4.88
2076.0  10467.51  530.65  5.07
2086.0  10367.19  524.10  5.06
2096.0  10196.33  515.77  5.06
2106.0  9977.58  512.81  5.14
2116.0  9951.76  519.11  5.22
2126.0  9831.36  526.07  5.35
2136.0  9625.43  521.49  5.42
2146.0  9388.88  519.26  5.53
2156.0  9207.43  524.89  5.70
2166.0  9064.45  503.15  5.55
2176.0  8911.97  507.00  5.69
2186.0  8812.47  493.04  5.59
2196.0  8746.91  490.04  5.60
2206.0  8717.01  492.42  5.65
2216.0  8632.54  487.76  5.65
2226.0  8558.94  464.85  5.43
2236.0  8436.18  471.98  5.59
2246.0  8282.68  463.69  5.60
2256.0  8199.17  434.64  5.30
2266.0  8120.13  419.25  5.16
2276.0  8038.92  401.12  4.99
2286.0  7958.54  405.27  5.09
2296.0  7926.13  374.46  4.72
2306.0  7675.85  360.97  4.70
2316.0  7429.53  352.93  4.75
2326.0  7404.63  359.93  4.86
2336.0  7366.33  350.51  4.76
2346.0  7276.21  322.97  4.44
2356.0  7132.49  306.50  4.30
2366.0  7038.59  321.54  4.57
2376.0  6898.87  294.65  4.27
2386.0  6807.05  302.39  4.44
2396.0  6685.66  290.82  4.35
2406.0  6574.61  254.30  3.87
2416.0  6463.16  269.39  4.17
2426.0  6354.84  245.32  3.86
2436.0  6210.96  263.65  4.24
2446.0  6104.75  264.58  4.33
2456.0  6017.59  272.43  4.53
2466.0  5854.98  228.21  3.90
2476.0  5727.20  205.85  3.59
2486.0  5577.85  203.59  3.65
2496.0  5547.28  222.38  4.01
2506.0  5804.94  252.86  4.36
