/*** Spectra Vista SIG Data ***/
name= RT1.sig
comm= Resampled spectral data SIG file reprocesed for matching/overlap;Averaged Ref/Tar of files: RD4T1,RD4T2,RD4T3
data=
346.0  340.80  71.35  20.94
356.0  544.40  82.65  15.18
366.0  714.82  88.17  12.33
376.0  985.51  88.16  8.95
386.0  1234.28  87.00  7.05
396.0  1571.48  106.88  6.80
406.0  1902.87  89.59  4.71
416.0  2323.69  109.25  4.70
426.0  2651.86  109.67  4.14
436.0  3232.15  118.55  3.67
446.0  3759.85  133.91  3.56
456.0  4269.90  137.68  3.22
466.0  5082.33  157.89  3.11
476.0  5806.26  175.72  3.03
486.0  6254.23  172.93  2.76
496.0  7250.74  193.84  2.67
506.0  8053.28  223.27  2.77
516.0  8382.21  240.99  2.88
526.0  9307.96  280.16  3.01
536.0  10571.91  338.25  3.20
546.0  11634.41  390.55  3.36
556.0  11722.26  414.39  3.54
566.0  12508.83  480.85  3.84
576.0  13771.49  615.99  4.47
586.0  14774.45  838.82  5.68
596.0  15587.87  1149.88  7.38
606.0  15848.54  1574.93  9.94
616.0  16885.10  2256.85  13.37
626.0  18631.00  3150.21  16.91
636.0  18309.52  3835.78  20.95
646.0  18394.72  4172.74  22.68
656.0  17983.29  4245.80  23.61
666.0  19024.69  4132.49  21.72
676.0  20228.64  4367.73  21.59
686.0  21934.23  6827.37  31.13
696.0  22524.19  10945.22  48.59
706.0  22702.97  13196.04  58.12
716.0  22282.05  13987.73  62.78
726.0  21555.98  14048.98  65.17
736.0  21106.80  13979.52  66.23
746.0  22280.51  15047.94  67.54
756.0  22712.19  15458.69  68.06
766.0  23623.07  16368.07  69.29
776.0  24204.34  16962.77  70.08
786.0  24295.32  17279.44  71.12
796.0  23798.27  16918.28  71.09
806.0  23070.19  16524.47  71.63
816.0  22947.41  16481.72  71.82
826.0  22787.74  16251.80  71.32
836.0  23109.32  16263.60  70.38
846.0  23653.93  16660.99  70.44
856.0  24083.28  16860.68  70.01
866.0  24262.93  16956.14  69.88
876.0  24343.13  16920.67  69.51
886.0  24496.13  16768.36  68.45
896.0  24260.72  16431.40  67.73
906.0  24262.35  16180.29  66.69
916.0  24072.36  15804.73  65.66
926.0  24039.88  15295.67  63.63
936.0  24726.44  14987.87  60.61
946.0  25298.31  14567.67  57.58
956.0  25919.98  13891.87  53.60
966.0  26425.55  13674.23  51.75
976.0  26850.07  13812.25  51.44
986.0  27758.72  14136.88  50.93
996.0  27918.33  14367.93  51.46
1006.0  27825.91  14620.28  52.54
1016.0  28000.53  15126.07  54.02
1026.0  27983.39  15536.43  55.52
1036.0  27803.88  15838.75  56.97
1046.0  27996.08  16375.20  58.49
1056.0  28151.32  16764.66  59.55
1066.0  28162.44  16933.75  60.13
1076.0  28041.72  16879.02  60.19
1086.0  28134.93  16769.66  59.60
1096.0  28141.99  16505.89  58.65
1106.0  28093.87  16157.43  57.51
1116.0  27913.60  15680.26  56.17
1126.0  27864.38  14983.61  53.77
1136.0  27855.20  13752.20  49.37
1146.0  27850.62  12274.67  44.07
1156.0  27756.80  11329.01  40.82
1166.0  27673.55  10933.26  39.51
1176.0  27649.95  10741.05  38.85
1186.0  27693.98  10611.91  38.32
1196.0  27377.68  10385.45  37.93
1206.0  27139.63  10300.71  37.95
1216.0  26983.64  10338.28  38.31
1226.0  26811.29  10431.81  38.91
1236.0  26703.89  10535.10  39.45
1246.0  26555.08  10591.48  39.88
1256.0  26398.37  10608.72  40.19
1266.0  26225.07  10572.42  40.31
1276.0  26281.74  10533.77  40.08
1286.0  26317.57  10404.26  39.53
1296.0  26164.93  10091.79  38.57
1306.0  25851.16  9585.22  37.08
1316.0  25466.94  8965.71  35.21
1326.0  25102.64  8251.73  32.87
1336.0  24711.74  7529.71  30.47
1346.0  24357.27  6888.51  28.28
1356.0  23834.98  6323.47  26.53
1366.0  23462.31  5789.28  24.67
1376.0  23379.97  5122.81  21.91
1386.0  23168.31  4080.96  17.61
1396.0  22909.51  3018.99  13.18
1406.0  22641.74  2287.07  10.10
1416.0  22605.66  1894.35  8.38
1426.0  22524.22  1693.48  7.52
1436.0  22438.31  1593.21  7.10
1446.0  22309.52  1544.37  6.92
1456.0  22172.59  1526.88  6.89
1466.0  22064.56  1548.90  7.02
1476.0  21856.23  1614.76  7.39
1486.0  21705.72  1737.92  8.01
1496.0  21520.14  1900.60  8.83
1506.0  21340.95  1984.61  9.30
1516.0  21119.97  2080.19  9.85
1526.0  20921.85  2204.01  10.53
1536.0  20747.86  2341.43  11.29
1546.0  20552.87  2470.37  12.02
1556.0  20397.04  2586.57  12.68
1566.0  20216.74  2682.16  13.27
1576.0  19962.98  2798.99  14.02
1586.0  19767.00  2891.17  14.63
1596.0  19549.38  2948.20  15.08
1606.0  19330.13  3011.36  15.58
1616.0  19098.52  3066.02  16.05
1626.0  18878.81  3120.23  16.53
1636.0  18648.55  3154.49  16.92
1646.0  18384.16  3157.53  17.18
1656.0  18103.83  3132.42  17.30
1666.0  17834.60  3095.08  17.35
1676.0  17605.05  3051.36  17.33
1686.0  17604.01  3017.51  17.14
1696.0  17396.94  2931.69  16.85
1706.0  17135.12  2814.05  16.42
1716.0  16749.46  2660.75  15.89
1726.0  16500.07  2527.80  15.32
1736.0  16292.21  2448.47  15.03
1746.0  16090.83  2370.25  14.73
1756.0  15804.78  2242.12  14.19
1766.0  15562.34  2142.35  13.77
1776.0  15425.89  2089.47  13.55
1786.0  15257.86  2037.78  13.36
1796.0  15062.10  2002.92  13.30
1806.0  14888.36  1992.25  13.38
1816.0  14685.39  1973.08  13.44
1826.0  14422.53  1939.47  13.45
1836.0  14078.09  1881.66  13.37
1846.0  13824.21  1801.12  13.03
1856.0  13588.46  1680.83  12.37
1866.0  13510.63  1431.97  10.60
1876.0  13269.82  1068.96  8.06
1886.0  13099.28  784.01  5.99
1896.0  12805.19  648.71  5.07
1906.0  12015.47  384.39  3.20
1916.0  11822.28  338.99  2.87
1926.0  11658.93  324.59  2.78
1936.0  11558.01  315.79  2.73
1946.0  11557.85  317.29  2.75
1956.0  11379.66  347.86  3.06
1966.0  11384.81  366.67  3.22
1976.0  11284.15  367.63  3.26
1986.0  11146.12  389.35  3.49
1996.0  10980.89  406.99  3.71
2006.0  10882.16  439.00  4.03
2016.0  10688.58  451.85  4.23
2026.0  10532.56  446.18  4.24
2036.0  10356.58  479.42  4.63
2046.0  10202.97  494.22  4.84
2056.0  10030.20  497.60  4.96
2066.0  9865.85  497.92  5.05
2076.0  9694.09  525.97  5.43
2086.0  9631.47  537.06  5.58
2096.0  9454.93  550.09  5.82
2106.0  9275.54  551.53  5.95
2116.0  9245.65  568.94  6.15
2126.0  9116.69  572.85  6.28
2136.0  8950.91  586.72  6.55
2146.0  8709.13  596.31  6.85
2156.0  8592.57  601.33  7.00
2166.0  8395.01  597.53  7.12
2176.0  8255.44  607.17  7.35
2186.0  8187.20  611.63  7.47
2196.0  8091.64  606.19  7.49
2206.0  8077.06  613.76  7.60
2216.0  7986.54  613.99  7.69
2226.0  7886.79  574.97  7.29
2236.0  7842.97  571.62  7.29
2246.0  7681.01  530.25  6.90
2256.0  7615.03  492.14  6.46
2266.0  7496.34  474.44  6.33
2276.0  7423.15  433.56  5.84
2286.0  7373.24  407.93  5.53
2296.0  7304.50  398.06  5.45
2306.0  7091.77  336.79  4.75
2316.0  6866.32  313.09  4.56
2326.0  6820.17  320.03  4.69
2336.0  6804.10  293.96  4.32
2346.0  6710.15  295.23  4.40
2356.0  6576.40  262.45  3.99
2366.0  6513.23  256.98  3.95
2376.0  6382.23  234.47  3.67
2386.0  6319.78  230.92  3.65
2396.0  6176.70  242.07  3.92
2406.0  6106.95  195.09  3.19
2416.0  6007.12  202.76  3.38
2426.0  5872.93  164.66  2.80
2436.0  5761.33  169.38  2.94
2446.0  5671.88  139.47  2.46
2456.0  5562.07  153.51  2.76
2466.0  5450.81  126.22  2.32
2476.0  5276.94  120.43  2.28
2486.0  5161.10  130.22  2.52
2496.0  5184.29  124.26  2.40
2506.0  5307.81  72.90  1.37
