/*** Spectra Vista SIG Data ***/
name= GS3.sig
comm= Resampled spectral data SIG file reprocesed for matching/overlap;Averaged Ref/Tar of files: GD4S7,GD4S8,GD4S9
data=
346.0  1.00  163.07  16307.00
356.0  1.00  204.81  20481.00
366.0  1.00  234.53  23453.00
376.0  1.00  280.32  28032.07
386.0  1.00  302.46  30246.33
396.0  1.00  387.83  38782.88
406.0  1.00  427.89  42789.18
416.0  1.00  547.84  54783.51
426.0  1.00  638.08  63808.00
436.0  1.00  776.26  77626.32
446.0  1.00  952.02  95201.91
456.0  1.00  1163.05  116305.43
466.0  1.00  1446.40  144639.97
476.0  1.00  1678.13  167813.19
486.0  1.00  1866.35  186635.18
496.0  1.00  2412.23  241223.24
506.0  1.00  3306.61  330661.38
516.0  1.00  4381.39  438139.00
526.0  1.00  5851.10  585109.99
536.0  1.00  7304.90  730490.33
546.0  1.00  8397.15  839714.60
556.0  1.00  8641.05  864105.44
566.0  1.00  9118.58  911858.08
576.0  1.00  9605.19  960518.72
586.0  1.00  9869.55  986954.81
596.0  1.00  10085.44  1008544.16
606.0  1.00  9868.97  986897.00
616.0  1.00  9791.55  979155.13
626.0  1.00  10361.13  1036113.39
636.0  1.00  9581.97  958197.48
646.0  1.00  9377.91  937791.12
656.0  1.00  8199.09  819909.34
666.0  1.00  6870.41  687041.03
676.0  1.00  6598.56  659856.00
686.0  1.00  8826.52  882651.69
696.0  1.00  15070.97  1507096.92
706.0  1.00  20758.26  2075825.55
716.0  1.00  23618.18  2361818.17
726.0  1.00  24600.97  2460096.55
736.0  1.00  24919.17  2491917.00
746.0  1.00  26993.22  2699321.73
756.0  1.00  27581.53  2758153.28
766.0  1.00  29126.56  2912655.58
776.0  1.00  29921.82  2992181.50
786.0  1.00  30267.91  3026790.90
796.0  1.00  29325.82  2932581.64
806.0  1.00  28473.06  2847306.15
816.0  1.00  28331.59  2833159.00
826.0  1.00  27841.62  2784161.98
836.0  1.00  27893.52  2789351.56
846.0  1.00  28676.02  2867601.53
856.0  1.00  29089.51  2908951.04
866.0  1.00  29345.08  2934507.55
876.0  1.00  29344.28  2934428.00
886.0  1.00  29107.26  2910725.80
896.0  1.00  28420.88  2842088.00
906.0  1.00  28000.30  2800029.55
916.0  1.00  27324.53  2732452.50
926.0  1.00  26503.53  2650353.50
936.0  1.00  26065.32  2606532.00
946.0  1.00  25447.37  2544737.12
956.0  1.00  24564.63  2456462.73
966.0  1.00  24441.11  2444110.50
976.0  1.00  24902.09  2490208.83
986.0  1.00  22829.82  2282982.35
996.0  1.00  23829.49  2382949.27
1006.0  1.00  24327.07  2432706.56
1016.0  1.00  25133.41  2513341.16
1026.0  1.00  25801.61  2580160.75
1036.0  1.00  26255.14  2625513.51
1046.0  1.00  27052.24  2705224.11
1056.0  1.00  27677.70  2767769.54
1066.0  1.00  27926.64  2792664.50
1076.0  1.00  27826.13  2782612.75
1086.0  1.00  27676.74  2767674.24
1096.0  1.00  27277.32  2727732.26
1106.0  1.00  26727.87  2672786.51
1116.0  1.00  25981.33  2598133.00
1126.0  1.00  24960.59  2496059.12
1136.0  1.00  23187.39  2318739.28
1146.0  1.00  21146.18  2114618.45
1156.0  1.00  19864.22  1986421.63
1166.0  1.00  19380.60  1938060.17
1176.0  1.00  19197.40  1919739.50
1186.0  1.00  19079.98  1907997.72
1196.0  1.00  18752.30  1875230.22
1206.0  1.00  18600.93  1860093.17
1216.0  1.00  18625.17  1862516.71
1226.0  1.00  18710.80  1871080.00
1236.0  1.00  18815.90  1881589.75
1246.0  1.00  18862.55  1886255.46
1256.0  1.00  18889.93  1888992.93
1266.0  1.00  18786.71  1878671.22
1276.0  1.00  18783.75  1878375.11
1286.0  1.00  18598.80  1859879.72
1296.0  1.00  18137.01  1813700.53
1306.0  1.00  17407.53  1740752.93
1316.0  1.00  16507.51  1650751.42
1326.0  1.00  15498.07  1549807.27
1336.0  1.00  14466.11  1446610.97
1346.0  1.00  13526.00  1352599.64
1356.0  1.00  12653.48  1265348.20
1366.0  1.00  11879.47  1187947.23
1376.0  1.00  10931.77  1093177.08
1386.0  1.00  9456.85  945685.17
1396.0  1.00  7898.66  789866.07
1406.0  1.00  6744.82  674482.16
1416.0  1.00  6102.42  610242.08
1426.0  1.00  5774.36  577436.05
1436.0  1.00  5603.10  560310.45
1446.0  1.00  5520.47  552047.28
1456.0  1.00  5486.98  548697.99
1466.0  1.00  5535.37  553537.31
1476.0  1.00  5646.84  564684.40
1486.0  1.00  5869.36  586936.02
1496.0  1.00  6132.65  613265.42
1506.0  1.00  6345.47  634546.89
1516.0  1.00  6501.54  650153.58
1526.0  1.00  6687.44  668744.00
1536.0  1.00  6895.43  689542.69
1546.0  1.00  7073.05  707304.69
1556.0  1.00  7258.99  725898.79
1566.0  1.00  7359.89  735988.75
1576.0  1.00  7537.89  753789.28
1586.0  1.00  7639.24  763924.00
1596.0  1.00  7704.48  770448.26
1606.0  1.00  7746.07  774606.64
1616.0  1.00  7815.84  781584.12
1626.0  1.00  7864.18  786418.41
1636.0  1.00  7873.47  787346.93
1646.0  1.00  7807.76  780775.53
1656.0  1.00  7723.80  772380.24
1666.0  1.00  7642.18  764217.72
1676.0  1.00  7538.55  753854.72
1686.0  1.00  7489.17  748916.82
1696.0  1.00  7324.86  732485.82
1706.0  1.00  7106.30  710629.87
1716.0  1.00  6807.23  680722.98
1726.0  1.00  6570.22  657021.63
1736.0  1.00  6412.93  641292.56
1746.0  1.00  6237.48  623747.57
1756.0  1.00  5992.94  599294.09
1766.0  1.00  5787.43  578743.41
1776.0  1.00  5682.81  568280.72
1786.0  1.00  5576.56  557656.43
1796.0  1.00  5481.38  548137.50
1806.0  1.00  5430.91  543090.53
1816.0  1.00  5365.90  536589.83
1826.0  1.00  5268.66  526866.35
1836.0  1.00  5122.74  512274.27
1846.0  1.00  5018.83  501883.26
1856.0  1.00  4867.80  486779.51
1866.0  1.00  4491.30  449130.35
1876.0  1.00  3830.28  383028.30
1886.0  1.00  3223.32  322332.03
1896.0  1.00  2812.81  281281.18
1906.0  1.00  1038.78  103878.22
1916.0  1.00  1327.52  132752.16
1926.0  1.00  1456.86  145686.18
1936.0  1.00  1299.60  129959.90
1946.0  1.00  1143.50  114350.16
1956.0  1.00  1333.68  133368.07
1966.0  1.00  1521.40  152139.64
1976.0  1.00  1567.94  156794.17
1986.0  1.00  1254.46  125445.57
1996.0  1.00  1483.12  148311.72
2006.0  1.00  1654.45  165445.28
2016.0  1.00  1755.23  175522.53
2026.0  1.00  1576.24  157624.19
2036.0  1.00  1626.78  162677.67
2046.0  1.00  1817.85  181785.44
2056.0  1.00  1852.00  185199.82
2066.0  1.00  1596.42  159642.43
2076.0  1.00  1694.07  169407.03
2086.0  1.00  1956.78  195678.27
2096.0  1.00  1859.14  185914.08
2106.0  1.00  1729.31  172931.25
2116.0  1.00  1891.45  189145.29
2126.0  1.00  2074.47  207446.88
2136.0  1.00  1683.94  168394.30
2146.0  1.00  1873.32  187331.66
2156.0  1.00  2090.21  209021.05
2166.0  1.00  1716.29  171629.44
2176.0  1.00  1732.58  173258.00
2186.0  1.00  2002.91  200291.29
2196.0  1.00  1741.36  174135.81
2206.0  1.00  1682.23  168223.05
2216.0  1.00  1998.27  199826.60
2226.0  1.00  1629.08  162908.00
2236.0  1.00  1557.21  155721.10
2246.0  1.00  1832.06  183205.58
2256.0  1.00  1367.06  136706.25
2266.0  1.00  1415.63  141562.69
2276.0  1.00  1709.00  170899.78
2286.0  1.00  1185.97  118597.50
2296.0  1.00  1370.51  137051.28
2306.0  1.00  1107.39  110738.60
2316.0  1.00  1076.86  107685.77
2326.0  1.00  1396.64  139664.15
2336.0  1.00  825.82  82581.93
2346.0  1.00  1161.21  116120.58
2356.0  1.00  918.94  91893.67
2366.0  1.00  867.67  86767.31
2376.0  1.00  1171.81  117181.10
2386.0  1.00  700.11  70011.00
2396.0  1.00  1141.09  114109.35
2406.0  1.00  493.59  49359.09
2416.0  1.00  911.72  91171.92
2426.0  1.00  441.30  44130.34
2436.0  1.00  696.84  69684.20
2446.0  1.00  436.49  43648.93
2456.0  1.00  448.36  44835.63
2466.0  1.00  578.30  57829.85
2476.0  1.00  496.07  49607.22
2486.0  1.00  496.49  49648.83
2496.0  1.00  448.35  44835.20
2506.0  1.00  809.56  80955.97
