/*** Spectra Vista SIG Data ***/
name= RB.sig
comm= Resampled spectral data SIG file reprocesed for matching/overlap;Averaged Ref/Tar of files: RD6B1,RD6B2,RD6B3,RD6B4
data=
346.0  329.65  52.40  15.90
356.0  516.40  63.78  12.35
366.0  698.58  70.10  10.03
376.0  976.87  77.57  7.94
386.0  1224.18  78.06  6.38
396.0  1566.84  94.53  6.03
406.0  1905.06  94.06  4.94
416.0  2340.68  111.13  4.75
426.0  2665.90  117.66  4.41
436.0  3265.95  132.36  4.05
446.0  3811.15  150.23  3.94
456.0  4324.41  164.89  3.81
466.0  5169.70  193.67  3.75
476.0  5888.86  225.81  3.83
486.0  6362.49  234.67  3.69
496.0  7401.97  270.48  3.65
506.0  8231.68  309.15  3.76
516.0  8569.82  335.20  3.91
526.0  9534.67  381.95  4.01
536.0  10867.15  451.70  4.16
546.0  11968.11  531.32  4.44
556.0  12055.65  570.50  4.73
566.0  12883.27  657.14  5.10
576.0  14233.18  794.01  5.58
586.0  15301.31  945.95  6.18
596.0  16149.89  1111.23  6.88
606.0  16420.12  1250.12  7.61
616.0  17504.92  1492.50  8.53
626.0  19283.76  1952.07  10.12
636.0  19009.26  2115.12  11.13
646.0  19176.79  2252.31  11.74
656.0  18764.34  2249.13  11.99
666.0  19837.66  2378.69  11.99
676.0  21134.32  2829.17  13.39
686.0  22993.98  3919.33  17.05
696.0  23625.74  4815.05  20.38
706.0  23840.89  5447.79  22.85
716.0  23414.84  5877.49  25.10
726.0  22666.04  6166.81  27.21
736.0  22217.44  6446.10  29.01
746.0  23539.75  7270.60  30.89
756.0  24018.27  7922.81  32.99
766.0  25069.03  8731.06  34.83
776.0  25745.06  9448.12  36.70
786.0  25931.70  9981.23  38.49
796.0  25433.26  10286.03  40.44
806.0  24728.20  10417.66  42.13
816.0  24637.61  10746.95  43.62
826.0  24467.93  10919.36  44.63
836.0  24803.20  11185.72  45.10
846.0  25383.80  11679.12  46.01
856.0  25793.73  12113.54  46.96
866.0  25921.46  12408.88  47.87
876.0  25956.48  12545.26  48.33
886.0  26028.01  12582.34  48.34
896.0  25745.18  12384.58  48.10
906.0  25731.04  12238.55  47.56
916.0  25532.23  11906.84  46.63
926.0  25514.43  11270.68  44.17
936.0  26257.41  10555.08  40.20
946.0  26962.11  9605.39  35.63
956.0  27680.68  8464.41  30.58
966.0  28271.61  8071.51  28.55
976.0  28743.35  8164.45  28.40
986.0  29196.83  8901.98  30.49
996.0  29276.82  9111.66  31.12
1006.0  29189.60  9474.41  32.46
1016.0  29366.87  10105.49  34.41
1026.0  29344.03  10737.10  36.59
1036.0  29131.35  11339.33  38.92
1046.0  29344.72  12049.71  41.06
1056.0  29523.02  12582.93  42.62
1066.0  29531.35  12838.94  43.48
1076.0  29440.66  12803.83  43.49
1086.0  29529.11  12580.73  42.60
1096.0  29573.99  12109.02  40.94
1106.0  29524.89  11548.51  39.11
1116.0  29325.14  10865.10  37.05
1126.0  29273.40  9894.85  33.80
1136.0  29301.39  8326.17  28.42
1146.0  29286.94  6827.30  23.31
1156.0  29220.91  6027.99  20.63
1166.0  29173.53  5748.36  19.70
1176.0  29153.76  5604.29  19.22
1186.0  29217.01  5512.31  18.87
1196.0  28897.69  5380.27  18.62
1206.0  28666.30  5328.72  18.59
1216.0  28517.85  5349.38  18.76
1226.0  28353.32  5386.62  19.00
1236.0  28231.93  5425.22  19.22
1246.0  28071.10  5446.44  19.40
1256.0  27913.02  5454.21  19.54
1266.0  27740.50  5414.31  19.52
1276.0  27803.71  5361.34  19.28
1286.0  27831.16  5236.41  18.81
1296.0  27672.24  5013.75  18.12
1306.0  27340.25  4676.90  17.11
1316.0  26932.95  4311.95  16.01
1326.0  26538.95  3936.72  14.83
1336.0  26109.69  3583.73  13.73
1346.0  25642.54  3285.67  12.81
1356.0  24917.00  3003.55  12.05
1366.0  24523.59  2793.97  11.39
1376.0  24466.83  2543.35  10.40
1386.0  24243.10  2172.28  8.96
1396.0  24014.94  1811.72  7.54
1406.0  23769.48  1561.43  6.57
1416.0  23789.45  1429.07  6.01
1426.0  23763.08  1358.54  5.72
1436.0  23687.14  1315.60  5.55
1446.0  23585.21  1295.11  5.49
1456.0  23456.07  1276.83  5.44
1466.0  23345.55  1280.13  5.48
1476.0  23131.43  1297.56  5.61
1486.0  22986.30  1339.08  5.83
1496.0  22794.07  1397.65  6.13
1506.0  22596.51  1429.83  6.33
1516.0  22366.48  1408.64  6.30
1526.0  22159.97  1454.20  6.56
1536.0  21998.03  1482.48  6.74
1546.0  21783.46  1488.76  6.83
1556.0  21611.90  1558.80  7.21
1566.0  21440.92  1584.89  7.39
1576.0  21169.52  1618.04  7.64
1586.0  20960.21  1634.67  7.80
1596.0  20728.44  1636.29  7.89
1606.0  20499.15  1639.04  8.00
1616.0  20261.61  1639.66  8.09
1626.0  20036.77  1648.43  8.23
1636.0  19782.10  1643.34  8.31
1646.0  19498.94  1633.95  8.38
1656.0  19212.95  1611.00  8.38
1666.0  18929.26  1591.93  8.41
1676.0  18677.29  1559.39  8.35
1686.0  18668.87  1541.95  8.26
1696.0  18453.78  1507.73  8.17
1706.0  18192.98  1460.43  8.03
1716.0  17786.76  1391.26  7.82
1726.0  17534.96  1341.69  7.65
1736.0  17312.95  1306.94  7.55
1746.0  17086.90  1272.05  7.44
1756.0  16782.90  1220.16  7.27
1766.0  16526.09  1184.30  7.17
1776.0  16382.24  1159.90  7.08
1786.0  16204.15  1131.70  6.98
1796.0  15965.36  1108.88  6.95
1806.0  15745.57  1089.94  6.92
1816.0  15463.26  1067.99  6.91
1826.0  15161.92  1044.65  6.89
1836.0  14760.73  1012.18  6.86
1846.0  14585.87  982.83  6.74
1856.0  14460.49  949.71  6.57
1866.0  14245.03  888.81  6.24
1876.0  14008.50  775.42  5.54
1886.0  13851.13  668.26  4.82
1896.0  13530.88  591.90  4.37
1906.0  12461.48  466.53  3.74
1916.0  12314.69  458.86  3.73
1926.0  12250.91  451.58  3.69
1936.0  12188.21  443.62  3.64
1946.0  12208.02  428.65  3.51
1956.0  12078.92  438.07  3.63
1966.0  12094.59  459.62  3.80
1976.0  11980.41  451.84  3.77
1986.0  11822.35  459.68  3.89
1996.0  11640.59  463.80  3.98
2006.0  11552.93  483.03  4.18
2016.0  11373.45  480.23  4.22
2026.0  11180.85  481.36  4.31
2036.0  11009.81  467.58  4.25
2046.0  10873.15  482.01  4.43
2056.0  10672.17  473.65  4.44
2066.0  10490.51  470.50  4.49
2076.0  10343.32  486.74  4.71
2086.0  10253.92  486.12  4.74
2096.0  10067.31  478.83  4.76
2106.0  9886.19  478.31  4.84
2116.0  9844.02  484.10  4.92
2126.0  9747.92  488.09  5.01
2136.0  9549.77  477.20  5.00
2146.0  9281.94  460.80  4.96
2156.0  9136.46  464.73  5.09
2166.0  8972.42  450.48  5.02
2176.0  8811.60  452.68  5.14
2186.0  8723.06  449.31  5.15
2196.0  8631.53  443.26  5.14
2206.0  8616.43  443.24  5.14
2216.0  8551.47  459.85  5.38
2226.0  8454.27  440.36  5.21
2236.0  8392.06  438.51  5.23
2246.0  8221.45  428.70  5.21
2256.0  8131.97  386.50  4.75
2266.0  8072.82  386.14  4.78
2276.0  7987.72  380.37  4.76
2286.0  7902.57  352.31  4.46
2296.0  7843.79  354.68  4.52
2306.0  7631.01  325.48  4.27
2316.0  7373.72  321.78  4.36
2326.0  7372.76  337.30  4.57
2336.0  7310.86  320.10  4.38
2346.0  7256.03  320.02  4.41
2356.0  7074.27  285.55  4.04
2366.0  7003.29  287.94  4.11
2376.0  6863.61  274.85  4.00
2386.0  6772.20  272.89  4.03
2396.0  6652.58  290.93  4.37
2406.0  6539.38  242.90  3.71
2416.0  6430.92  274.68  4.27
2426.0  6352.68  245.20  3.86
2436.0  6180.45  231.81  3.75
2446.0  6083.51  236.80  3.89
2456.0  5999.76  211.72  3.53
2466.0  5805.80  216.35  3.73
2476.0  5699.95  202.19  3.55
2486.0  5548.99  190.83  3.44
2496.0  5455.66  186.99  3.43
2506.0  5693.75  166.78  2.93
