/*** Spectra Vista SIG Data ***/
name= RS1.sig
comm= Resampled spectral data SIG file reprocesed for matching/overlap;Averaged Ref/Tar of files: RD6S1,RD6S2,RD6S3
data=
346.0  350.35  51.17  14.61
356.0  548.37  61.41  11.20
366.0  733.51  65.76  8.97
376.0  1020.12  74.21  7.27
386.0  1277.04  74.91  5.87
396.0  1627.44  91.64  5.63
406.0  1981.59  90.39  4.56
416.0  2426.66  106.39  4.38
426.0  2760.20  111.28  4.03
436.0  3371.96  127.44  3.78
446.0  3932.55  144.03  3.66
456.0  4458.34  154.56  3.47
466.0  5321.78  183.81  3.45
476.0  6071.69  205.08  3.38
486.0  6545.75  216.29  3.30
496.0  7607.89  251.47  3.31
506.0  8454.78  285.08  3.37
516.0  8783.27  300.53  3.42
526.0  9763.90  339.50  3.48
536.0  11118.00  399.42  3.59
546.0  12245.42  454.65  3.71
556.0  12328.74  478.56  3.88
566.0  13155.91  543.22  4.13
576.0  14507.55  657.35  4.53
586.0  15570.89  792.06  5.09
596.0  16431.40  920.26  5.60
606.0  16712.83  1053.58  6.30
616.0  17829.88  1300.32  7.29
626.0  19660.82  1610.80  8.19
636.0  19333.08  1874.58  9.70
646.0  19460.12  2206.36  11.34
656.0  19022.71  2350.65  12.36
666.0  20100.61  2535.63  12.61
676.0  21420.32  3021.29  14.10
686.0  23296.24  3989.56  17.13
696.0  23938.75  4705.26  19.66
706.0  24146.65  5283.62  21.88
716.0  23692.80  5669.29  23.93
726.0  22909.23  5924.27  25.86
736.0  22412.65  6196.66  27.65
746.0  23689.99  7048.13  29.75
756.0  24146.35  7596.38  31.46
766.0  25173.28  8450.75  33.57
776.0  25830.00  9157.34  35.45
786.0  26006.50  9711.70  37.34
796.0  25488.24  9873.59  38.74
806.0  24760.71  9980.80  40.31
816.0  24660.03  10284.41  41.70
826.0  24490.65  10377.33  42.37
836.0  24813.24  10591.03  42.68
846.0  25390.01  11060.14  43.56
856.0  25793.23  11395.75  44.18
866.0  25937.23  11629.55  44.84
876.0  25978.67  11709.31  45.07
886.0  26066.82  11669.25  44.77
896.0  25797.95  11408.86  44.22
906.0  25784.12  11203.62  43.45
916.0  25585.58  10822.76  42.30
926.0  25562.63  10141.49  39.67
936.0  26313.67  9368.60  35.60
946.0  26990.41  8403.45  31.13
956.0  27679.08  7265.98  26.25
966.0  28223.03  6854.83  24.29
976.0  28734.35  6793.17  23.64
986.0  29617.10  6503.19  21.96
996.0  29682.46  6882.53  23.19
1006.0  29574.85  7266.09  24.57
1016.0  29765.57  7818.23  26.27
1026.0  29729.52  8372.12  28.16
1036.0  29515.06  8912.72  30.20
1046.0  29711.45  9550.11  32.14
1056.0  29893.15  10047.44  33.61
1066.0  29897.52  10302.57  34.46
1076.0  29800.79  10257.70  34.42
1086.0  29886.99  10038.28  33.59
1096.0  29929.51  9586.21  32.03
1106.0  29866.48  9086.30  30.42
1116.0  29674.06  8465.28  28.53
1126.0  29628.74  7585.87  25.60
1136.0  29657.68  6204.28  20.92
1146.0  29635.14  4945.20  16.69
1156.0  29553.21  4314.99  14.60
1166.0  29503.66  4098.58  13.89
1176.0  29484.94  3989.29  13.53
1186.0  29538.64  3924.48  13.29
1196.0  29214.89  3826.10  13.10
1206.0  28979.48  3789.30  13.08
1216.0  28818.50  3793.08  13.16
1226.0  28656.56  3819.58  13.33
1236.0  28531.50  3844.83  13.48
1246.0  28361.18  3860.05  13.61
1256.0  28203.68  3867.33  13.71
1266.0  28029.85  3846.91  13.72
1276.0  28088.39  3818.74  13.60
1286.0  28124.94  3719.45  13.22
1296.0  27958.41  3557.26  12.72
1306.0  27627.28  3326.44  12.04
1316.0  27221.07  3073.16  11.29
1326.0  26818.19  2811.15  10.48
1336.0  26392.47  2571.81  9.74
1346.0  25960.75  2386.84  9.19
1356.0  25324.13  2216.99  8.75
1366.0  24931.33  2071.05  8.31
1376.0  24859.99  1941.07  7.81
1386.0  24632.06  1725.67  7.01
1396.0  24380.47  1510.54  6.20
1406.0  24113.09  1350.80  5.60
1416.0  24100.63  1253.55  5.20
1426.0  24059.20  1199.55  4.99
1436.0  23972.09  1170.76  4.88
1446.0  23864.15  1149.79  4.82
1456.0  23721.80  1139.03  4.80
1466.0  23605.52  1136.58  4.81
1476.0  23392.42  1139.58  4.87
1486.0  23242.80  1167.80  5.02
1496.0  23046.32  1204.67  5.23
1506.0  22839.62  1218.30  5.33
1516.0  22613.88  1222.65  5.41
1526.0  22400.45  1230.18  5.49
1536.0  22235.76  1241.80  5.58
1546.0  22015.88  1265.76  5.75
1556.0  21843.28  1264.55  5.79
1566.0  21667.65  1274.39  5.88
1576.0  21395.50  1291.71  6.04
1586.0  21183.04  1287.45  6.08
1596.0  20952.60  1272.66  6.07
1606.0  20718.70  1265.90  6.11
1616.0  20474.49  1264.69  6.18
1626.0  20247.31  1263.00  6.24
1636.0  19983.73  1255.08  6.28
1646.0  19698.46  1234.88  6.27
1656.0  19408.32  1209.75  6.23
1666.0  19124.83  1181.55  6.18
1676.0  18864.06  1155.06  6.12
1686.0  18855.84  1146.15  6.08
1696.0  18634.96  1127.12  6.05
1706.0  18370.29  1092.44  5.95
1716.0  17962.80  1050.03  5.85
1726.0  17703.75  1013.89  5.73
1736.0  17485.45  988.06  5.65
1746.0  17265.19  962.84  5.58
1756.0  16948.63  933.20  5.51
1766.0  16694.46  911.37  5.46
1776.0  16556.01  896.59  5.42
1786.0  16371.39  880.93  5.38
1796.0  16140.67  858.89  5.32
1806.0  15938.14  839.91  5.27
1816.0  15678.97  830.78  5.30
1826.0  15392.26  816.67  5.31
1836.0  15002.97  795.42  5.30
1846.0  14761.21  792.49  5.37
1856.0  14556.19  814.78  5.60
1866.0  14407.28  747.22  5.19
1876.0  14196.45  618.79  4.36
1886.0  14007.84  529.79  3.78
1896.0  13666.82  492.72  3.61
1906.0  12741.66  642.72  5.04
1916.0  12564.20  580.52  4.62
1926.0  12460.23  571.27  4.58
1936.0  12370.80  564.66  4.56
1946.0  12350.77  564.78  4.57
1956.0  12226.83  561.09  4.59
1966.0  12235.64  567.77  4.64
1976.0  12109.13  579.78  4.79
1986.0  11959.16  585.57  4.90
1996.0  11765.88  572.72  4.87
2006.0  11671.47  573.99  4.92
2016.0  11489.77  579.07  5.04
2026.0  11296.39  574.70  5.09
2036.0  11118.89  571.26  5.14
2046.0  10967.77  573.01  5.22
2056.0  10772.24  568.98  5.28
2066.0  10586.51  577.08  5.45
2076.0  10437.29  567.55  5.44
2086.0  10345.87  567.36  5.48
2096.0  10147.65  557.75  5.50
2106.0  9962.90  564.17  5.66
2116.0  9924.42  550.82  5.55
2126.0  9819.65  562.49  5.73
2136.0  9628.14  553.30  5.75
2146.0  9347.98  535.44  5.73
2156.0  9207.07  522.68  5.68
2166.0  9045.30  499.69  5.52
2176.0  8862.98  504.20  5.69
2186.0  8784.19  489.89  5.58
2196.0  8710.92  484.21  5.56
2206.0  8676.64  489.13  5.64
2216.0  8628.13  484.98  5.62
2226.0  8514.03  462.82  5.44
2236.0  8471.23  457.25  5.40
2246.0  8264.26  445.81  5.39
2256.0  8190.87  429.21  5.24
2266.0  8126.90  413.50  5.09
2276.0  8029.96  390.67  4.87
2286.0  7925.78  401.50  5.07
2296.0  7890.23  363.75  4.61
2306.0  7669.48  353.62  4.61
2316.0  7409.17  338.75  4.57
2326.0  7407.33  356.23  4.81
2336.0  7352.94  333.58  4.54
2346.0  7306.66  318.48  4.36
2356.0  7113.81  304.14  4.28
2366.0  7033.05  321.31  4.57
2376.0  6902.02  294.90  4.27
2386.0  6802.63  280.64  4.13
2396.0  6698.31  273.28  4.08
2406.0  6580.89  242.63  3.69
2416.0  6486.45  232.41  3.58
2426.0  6373.82  254.22  3.99
2436.0  6209.95  242.79  3.91
2446.0  6115.19  205.91  3.37
2456.0  6033.36  227.70  3.77
2466.0  5852.24  177.72  3.04
2476.0  5728.44  181.52  3.17
2486.0  5584.08  172.84  3.10
2496.0  5488.96  138.28  2.52
2506.0  5754.08  148.88  2.59
