/*** Spectra Vista SIG Data ***/
name= T1.sig
comm= Resampled spectral data SIG file reprocesed for matching/overlap;Averaged Ref/Tar of files: RD3T4,RD3T5,RD3T6
data=
346.0  598.78  88.33  14.75
356.0  924.17  101.75  11.01
366.0  1234.61  108.09  8.75
376.0  1691.57  112.88  6.67
386.0  2110.32  103.53  4.91
396.0  2699.64  127.99  4.74
406.0  3258.06  110.93  3.40
416.0  3980.12  133.85  3.36
426.0  4560.62  134.49  2.95
436.0  5560.57  142.96  2.57
446.0  6459.13  162.40  2.51
456.0  7345.42  171.20  2.33
466.0  8824.96  198.77  2.25
476.0  10121.58  229.82  2.27
486.0  10943.49  229.18  2.09
496.0  12761.25  270.82  2.12
506.0  14311.81  328.96  2.30
516.0  15112.04  390.13  2.58
526.0  16957.18  486.96  2.87
536.0  19355.60  603.85  3.12
546.0  21330.59  720.64  3.38
556.0  21581.55  789.15  3.66
566.0  23226.44  936.90  4.03
576.0  25810.52  1183.95  4.59
586.0  27755.51  1501.64  5.41
596.0  29194.08  1912.86  6.55
606.0  29534.45  2339.22  7.92
616.0  31318.23  2926.71  9.35
626.0  34410.58  3755.03  10.91
636.0  34069.21  4303.67  12.63
646.0  34679.65  4105.69  11.84
656.0  34069.42  3631.72  10.66
666.0  35802.93  3432.79  9.59
676.0  37841.78  3395.86  8.97
686.0  40854.13  5232.17  12.81
696.0  41747.28  9785.52  23.44
706.0  41971.06  13160.12  31.36
716.0  41223.34  14645.95  35.53
726.0  40067.78  15126.49  37.75
736.0  39511.29  15180.91  38.42
746.0  41985.01  16292.51  38.81
756.0  42844.63  16824.62  39.27
766.0  44461.06  17559.41  39.49
776.0  45318.27  18035.48  39.80
786.0  45304.05  18173.85  40.12
796.0  44083.17  17977.61  40.78
806.0  42558.06  17523.79  41.18
816.0  42205.19  17436.66  41.31
826.0  41881.04  17106.54  40.85
836.0  42513.48  16968.04  39.91
846.0  43677.73  17237.08  39.46
856.0  44639.93  17527.47  39.26
866.0  45173.91  17576.91  38.91
876.0  45452.84  17478.99  38.46
886.0  45709.40  17316.79  37.88
896.0  45235.90  16832.76  37.21
906.0  45023.00  16437.55  36.51
916.0  44495.20  15872.99  35.67
926.0  44269.25  15168.69  34.26
936.0  45413.73  14664.11  32.29
946.0  46396.61  13970.11  30.11
956.0  47429.46  13150.54  27.73
966.0  48326.20  12813.25  26.51
976.0  49108.57  12675.23  25.81
986.0  50490.65  15006.95  29.72
996.0  50607.35  15410.24  30.45
1006.0  50486.13  15800.99  31.30
1016.0  50803.76  16395.84  32.27
1026.0  50772.47  16937.23  33.36
1036.0  50488.61  17357.22  34.38
1046.0  50910.83  17983.89  35.32
1056.0  51254.42  18466.75  36.03
1066.0  51336.62  18691.41  36.41
1076.0  51162.22  18641.25  36.44
1086.0  51303.09  18523.41  36.11
1096.0  51344.30  18209.30  35.47
1106.0  51211.90  17772.43  34.70
1116.0  50831.30  17184.31  33.81
1126.0  50674.44  16388.58  32.34
1136.0  50616.91  15031.34  29.70
1146.0  50531.75  13414.46  26.55
1156.0  50358.44  12321.39  24.47
1166.0  50175.54  11859.29  23.64
1176.0  50092.24  11618.13  23.19
1186.0  50160.75  11451.73  22.83
1196.0  49589.85  11205.08  22.60
1206.0  49136.73  11099.98  22.59
1216.0  48856.16  11118.49  22.76
1226.0  48538.40  11215.73  23.11
1236.0  48332.55  11312.50  23.41
1246.0  48044.92  11355.07  23.63
1256.0  47756.51  11360.99  23.79
1266.0  47442.71  11306.45  23.83
1276.0  47551.66  11280.83  23.72
1286.0  47606.03  11125.83  23.37
1296.0  47326.24  10796.68  22.81
1306.0  46758.50  10284.02  21.99
1316.0  46095.57  9631.93  20.90
1326.0  45453.96  8884.81  19.55
1336.0  44765.54  8125.49  18.15
1346.0  44091.89  7462.47  16.92
1356.0  43065.01  6832.57  15.87
1366.0  42453.65  6241.42  14.70
1376.0  42338.17  5612.84  13.26
1386.0  41985.88  4562.33  10.87
1396.0  41548.36  3479.92  8.38
1406.0  41106.41  2703.75  6.58
1416.0  41061.27  2280.38  5.55
1426.0  40954.01  2064.81  5.04
1436.0  40796.14  1957.58  4.80
1446.0  40594.32  1909.21  4.70
1456.0  40330.62  1889.54  4.69
1466.0  40125.74  1916.73  4.78
1476.0  39754.25  1984.76  4.99
1486.0  39484.92  2116.76  5.36
1496.0  39151.21  2289.11  5.85
1506.0  38800.67  2406.45  6.20
1516.0  38385.61  2492.59  6.49
1526.0  38038.86  2593.70  6.82
1536.0  37757.73  2691.18  7.13
1546.0  37407.06  2811.18  7.52
1556.0  37137.95  2953.80  7.95
1566.0  36823.70  3091.67  8.40
1576.0  36372.01  3212.07  8.83
1586.0  36009.48  3293.70  9.15
1596.0  35619.37  3357.33  9.43
1606.0  35232.08  3416.56  9.70
1616.0  34829.65  3472.37  9.97
1626.0  34452.68  3518.32  10.21
1636.0  34007.58  3546.96  10.43
1646.0  33523.68  3559.99  10.62
1656.0  33037.62  3540.92  10.72
1666.0  32548.04  3506.62  10.77
1676.0  32123.29  3448.51  10.74
1686.0  32117.51  3399.83  10.59
1696.0  31764.57  3296.72  10.38
1706.0  31316.98  3164.06  10.10
1716.0  30611.05  2989.84  9.77
1726.0  30177.81  2838.08  9.40
1736.0  29812.17  2754.44  9.24
1746.0  29439.81  2674.64  9.09
1756.0  28928.41  2545.24  8.80
1766.0  28491.94  2438.20  8.56
1776.0  28263.25  2384.48  8.44
1786.0  27973.79  2327.99  8.32
1796.0  27612.53  2283.42  8.27
1806.0  27286.01  2263.01  8.29
1816.0  26879.26  2233.77  8.31
1826.0  26408.56  2189.93  8.29
1836.0  25765.82  2114.72  8.21
1846.0  25402.19  2033.35  8.00
1856.0  25067.72  1913.86  7.63
1866.0  24868.79  1687.68  6.79
1876.0  24488.38  1323.69  5.41
1886.0  24233.30  1004.47  4.14
1896.0  23683.96  816.16  3.45
1906.0  22096.75  425.49  1.93
1916.0  21802.32  418.04  1.92
1926.0  21588.87  390.39  1.81
1936.0  21449.43  402.96  1.88
1946.0  21420.23  397.06  1.85
1956.0  21201.75  435.18  2.05
1966.0  21198.12  440.65  2.08
1976.0  21006.67  469.58  2.24
1986.0  20732.55  484.76  2.34
1996.0  20450.49  511.84  2.50
2006.0  20269.19  533.51  2.63
2016.0  19957.87  549.17  2.75
2026.0  19629.85  577.30  2.94
2036.0  19319.95  582.04  3.01
2046.0  19073.35  609.73  3.20
2056.0  18736.02  629.25  3.36
2066.0  18425.00  630.37  3.42
2076.0  18163.31  655.82  3.61
2086.0  17998.96  665.41  3.70
2096.0  17698.67  672.33  3.80
2106.0  17393.37  688.30  3.96
2116.0  17301.34  711.37  4.11
2126.0  17117.10  733.89  4.29
2136.0  16805.93  719.82  4.28
2146.0  16338.81  738.71  4.52
2156.0  16108.43  741.14  4.60
2166.0  15818.08  747.07  4.72
2176.0  15571.16  757.51  4.86
2186.0  15407.91  750.05  4.87
2196.0  15291.27  752.66  4.92
2206.0  15252.10  745.06  4.88
2216.0  15137.72  747.32  4.94
2226.0  14957.58  729.24  4.88
2236.0  14828.49  699.86  4.72
2246.0  14572.63  669.95  4.60
2256.0  14413.52  634.01  4.40
2266.0  14283.01  600.10  4.20
2276.0  14142.85  571.39  4.04
2286.0  14066.30  542.83  3.86
2296.0  13956.39  498.27  3.57
2306.0  13536.25  450.47  3.33
2316.0  13130.37  427.34  3.25
2326.0  13082.91  439.60  3.36
2336.0  13030.52  412.25  3.16
2346.0  12874.44  390.58  3.03
2356.0  12605.38  373.55  2.96
2366.0  12490.11  365.54  2.93
2376.0  12262.88  349.84  2.85
2386.0  12077.58  336.58  2.79
2396.0  11871.57  350.86  2.96
2406.0  11728.43  297.48  2.54
2416.0  11508.86  282.06  2.45
2426.0  11344.58  264.57  2.33
2436.0  11091.32  271.45  2.45
2446.0  10929.32  246.58  2.26
2456.0  10711.77  218.41  2.04
2466.0  10484.26  202.97  1.94
2476.0  10216.57  188.19  1.84
2486.0  9941.47  194.67  1.96
2496.0  9864.73  179.19  1.82
2506.0  10308.86  163.77  1.59
