/*** Spectra Vista SIG Data ***/
name= GS3.sig
comm= Resampled spectral data SIG file reprocesed for matching/overlap;Averaged Ref/Tar of files: GD6S7,GD6S8,GD6S9
data=
346.0  350.35  65.82  18.79
356.0  548.37  77.20  14.08
366.0  733.51  86.32  11.77
376.0  1020.12  95.95  9.41
386.0  1277.04  102.16  8.00
396.0  1627.44  130.26  8.00
406.0  1981.59  135.81  6.85
416.0  2426.66  166.57  6.86
426.0  2760.20  185.50  6.72
436.0  3371.96  223.60  6.63
446.0  3932.55  265.40  6.75
456.0  4458.34  300.26  6.73
466.0  5321.78  368.20  6.92
476.0  6071.69  438.25  7.22
486.0  6545.75  473.24  7.23
496.0  7607.89  568.76  7.48
506.0  8454.78  672.16  7.95
516.0  8783.27  753.64  8.58
526.0  9763.90  896.94  9.19
536.0  11118.00  1084.88  9.76
546.0  12245.42  1288.08  10.52
556.0  12328.74  1392.92  11.30
566.0  13155.91  1609.32  12.23
576.0  14507.55  1938.08  13.36
586.0  15570.89  2264.01  14.54
596.0  16431.40  2548.06  15.51
606.0  16712.83  2734.45  16.36
616.0  17829.88  3130.85  17.56
626.0  19660.82  3592.55  18.27
636.0  19333.08  3997.00  20.67
646.0  19460.12  4333.11  22.27
656.0  19022.71  4288.58  22.54
666.0  20100.61  4114.19  20.47
676.0  21420.32  4595.29  21.45
686.0  23296.24  6203.09  26.63
696.0  23938.75  7551.67  31.55
706.0  24146.65  8485.56  35.14
716.0  23692.80  8950.07  37.78
726.0  22909.23  9163.41  40.00
736.0  22412.65  9366.59  41.79
746.0  23689.99  10377.56  43.81
756.0  24146.35  10970.80  45.43
766.0  25173.28  11893.46  47.25
776.0  25830.00  12572.60  48.67
786.0  26006.50  12990.72  49.95
796.0  25488.24  12922.04  50.70
806.0  24760.71  12775.64  51.60
816.0  24660.03  12934.86  52.45
826.0  24490.65  12896.37  52.66
836.0  24813.24  13069.26  52.67
846.0  25390.01  13555.53  53.39
856.0  25793.23  13886.08  53.84
866.0  25937.23  14105.48  54.38
876.0  25978.67  14176.49  54.57
886.0  26066.82  14086.51  54.04
896.0  25797.95  13771.76  53.38
906.0  25784.12  13536.96  52.50
916.0  25585.58  13112.84  51.25
926.0  25562.63  12459.44  48.74
936.0  26313.67  11865.53  45.09
946.0  26990.41  11064.83  41.00
956.0  27679.08  10038.03  36.27
966.0  28223.03  9691.29  34.34
976.0  28734.35  9632.57  33.52
986.0  29617.10  10149.78  34.27
996.0  29682.46  10425.99  35.13
1006.0  29574.85  10795.72  36.50
1016.0  29765.57  11406.45  38.32
1026.0  29729.52  11958.82  40.23
1036.0  29515.06  12452.68  42.19
1046.0  29711.45  13085.52  44.04
1056.0  29893.15  13567.69  45.39
1066.0  29897.52  13793.01  46.13
1076.0  29800.79  13754.18  46.15
1086.0  29886.99  13567.84  45.40
1096.0  29929.51  13197.73  44.10
1106.0  29866.48  12710.85  42.56
1116.0  29674.06  12091.93  40.75
1126.0  29628.74  11183.56  37.75
1136.0  29657.68  9608.33  32.40
1146.0  29635.14  7978.14  26.92
1156.0  29553.21  7096.92  24.01
1166.0  29503.66  6784.28  22.99
1176.0  29484.94  6635.58  22.50
1186.0  29538.64  6538.76  22.14
1196.0  29214.89  6405.38  21.93
1206.0  28979.48  6367.14  21.97
1216.0  28818.50  6413.41  22.25
1226.0  28656.56  6496.09  22.67
1236.0  28531.50  6579.92  23.06
1246.0  28361.18  6634.11  23.39
1256.0  28203.68  6665.86  23.63
1266.0  28029.85  6639.72  23.69
1276.0  28088.39  6595.87  23.48
1286.0  28124.94  6426.31  22.85
1296.0  27958.41  6140.40  21.96
1306.0  27627.28  5706.93  20.66
1316.0  27221.07  5189.31  19.06
1326.0  26818.19  4637.60  17.29
1336.0  26392.47  4113.39  15.59
1346.0  25960.75  3688.16  14.21
1356.0  25324.13  3318.97  13.11
1366.0  24931.33  3001.00  12.04
1376.0  24859.99  2617.91  10.53
1386.0  24632.06  2079.37  8.44
1396.0  24380.47  1618.83  6.64
1406.0  24113.09  1323.96  5.49
1416.0  24100.63  1175.83  4.88
1426.0  24059.20  1107.68  4.60
1436.0  23972.09  1072.32  4.47
1446.0  23864.15  1042.97  4.37
1456.0  23721.80  1033.56  4.36
1466.0  23605.52  1035.44  4.39
1476.0  23392.42  1063.73  4.55
1486.0  23242.80  1116.56  4.80
1496.0  23046.32  1188.38  5.16
1506.0  22839.62  1216.00  5.32
1516.0  22613.88  1242.57  5.49
1526.0  22400.45  1277.01  5.70
1536.0  22235.76  1326.73  5.97
1546.0  22015.88  1387.09  6.30
1556.0  21843.28  1434.34  6.57
1566.0  21667.65  1481.76  6.84
1576.0  21395.50  1539.70  7.20
1586.0  21183.04  1577.37  7.45
1596.0  20952.60  1594.31  7.61
1606.0  20718.70  1615.13  7.80
1616.0  20474.49  1635.95  7.99
1626.0  20247.31  1660.15  8.20
1636.0  19983.73  1668.05  8.35
1646.0  19698.46  1667.28  8.46
1656.0  19408.32  1650.44  8.50
1666.0  19124.83  1626.79  8.51
1676.0  18864.06  1601.16  8.49
1686.0  18855.84  1575.94  8.36
1696.0  18634.96  1542.23  8.28
1706.0  18370.29  1491.16  8.12
1716.0  17962.80  1417.39  7.89
1726.0  17703.75  1351.67  7.63
1736.0  17485.45  1310.74  7.50
1746.0  17265.19  1257.55  7.28
1756.0  16948.63  1193.40  7.04
1766.0  16694.46  1149.32  6.88
1776.0  16556.01  1113.55  6.73
1786.0  16371.39  1083.60  6.62
1796.0  16140.67  1062.87  6.59
1806.0  15938.14  1047.06  6.57
1816.0  15678.97  1028.10  6.56
1826.0  15392.26  1006.72  6.54
1836.0  15002.97  970.63  6.47
1846.0  14761.21  945.02  6.40
1856.0  14556.19  908.76  6.24
1866.0  14407.28  802.34  5.57
1876.0  14196.45  656.43  4.62
1886.0  14007.84  540.98  3.86
1896.0  13666.82  488.00  3.57
1906.0  12741.66  383.70  3.01
1916.0  12564.20  356.92  2.84
1926.0  12460.23  366.91  2.94
1936.0  12370.80  359.93  2.91
1946.0  12350.77  343.22  2.78
1956.0  12226.83  338.62  2.77
1966.0  12235.64  362.81  2.97
1976.0  12109.13  364.67  3.01
1986.0  11959.16  352.20  2.95
1996.0  11765.88  367.59  3.12
2006.0  11671.47  374.55  3.21
2016.0  11489.77  376.82  3.28
2026.0  11296.39  377.63  3.34
2036.0  11118.89  388.62  3.50
2046.0  10967.77  377.67  3.44
2056.0  10772.24  383.67  3.56
2066.0  10586.51  383.63  3.62
2076.0  10437.29  388.23  3.72
2086.0  10345.87  392.64  3.80
2096.0  10147.65  392.84  3.87
2106.0  9962.90  398.40  4.00
2116.0  9924.42  414.99  4.18
2126.0  9819.65  410.98  4.19
2136.0  9628.14  394.52  4.10
2146.0  9347.98  398.28  4.26
2156.0  9207.07  402.36  4.37
2166.0  9045.30  391.12  4.32
2176.0  8862.98  405.25  4.57
2186.0  8784.19  385.17  4.38
2196.0  8710.92  366.83  4.21
2206.0  8676.64  371.18  4.28
2216.0  8628.13  379.81  4.40
2226.0  8514.03  371.73  4.37
2236.0  8471.23  361.64  4.27
2246.0  8264.26  347.36  4.20
2256.0  8190.87  329.27  4.02
2266.0  8126.90  341.29  4.20
2276.0  8029.96  305.96  3.81
2286.0  7925.78  296.13  3.74
2296.0  7890.23  295.67  3.75
2306.0  7669.48  270.48  3.53
2316.0  7409.17  272.98  3.68
2326.0  7407.33  254.52  3.44
2336.0  7352.94  256.80  3.49
2346.0  7306.66  253.82  3.47
2356.0  7113.81  234.67  3.30
2366.0  7033.05  242.29  3.44
2376.0  6902.02  234.08  3.39
2386.0  6802.63  225.44  3.31
2396.0  6698.31  200.09  2.99
2406.0  6580.89  191.39  2.91
2416.0  6486.45  194.18  2.99
2426.0  6373.82  167.40  2.63
2436.0  6209.95  172.26  2.77
2446.0  6115.19  161.92  2.65
2456.0  6033.36  143.47  2.38
2466.0  5852.24  157.39  2.69
2476.0  5728.44  157.80  2.75
2486.0  5584.08  160.84  2.88
2496.0  5488.96  133.06  2.42
2506.0  5754.08  138.13  2.40
