/*** Spectra Vista SIG Data ***/
name= GT2.sig
comm= SIG file reprocesed for matching/overlap;Averaged Ref/Tar of files: GD4T4,GD4T5,GD4T6
data=
346.4  1.00  104.04  10404.00
347.9  1.00  107.10  10710.00
349.5  1.00  104.00  10400.00
351.1  1.00  106.91  10691.00
352.6  1.00  113.01  11301.00
354.2  1.00  118.25  11825.00
355.7  1.00  119.43  11943.00
357.3  1.00  121.59  12159.00
358.8  1.00  118.36  11836.00
360.4  1.00  131.79  13179.00
361.9  1.00  128.62  12862.00
363.5  1.00  129.73  12973.00
365.1  1.00  133.61  13361.00
366.6  1.00  128.43  12843.00
368.2  1.00  133.85  13385.00
369.7  1.00  127.55  12755.00
371.3  1.00  129.94  12994.00
372.8  1.00  135.46  13546.00
374.4  1.00  137.51  13751.00
375.9  1.00  139.02  13902.00
377.4  1.00  140.94  14094.00
379.0  1.00  142.58  14258.00
380.5  1.00  139.10  13910.00
382.1  1.00  135.93  13593.00
383.6  1.00  133.43  13343.00
385.2  1.00  136.40  13640.00
386.7  1.00  138.62  13862.00
388.3  1.00  145.66  14566.00
389.8  1.00  146.77  14677.00
391.3  1.00  153.73  15373.00
392.9  1.00  153.63  15363.00
394.4  1.00  163.02  16302.00
395.9  1.00  173.74  17374.00
397.5  1.00  183.46  18346.00
399.0  1.00  184.58  18458.00
400.6  1.00  181.87  18187.00
402.1  1.00  177.16  17716.00
403.6  1.00  174.86  17486.00
405.1  1.00  172.74  17274.00
406.7  1.00  183.38  18338.00
408.2  1.00  190.38  19038.00
409.7  1.00  195.33  19533.00
411.3  1.00  200.73  20073.00
412.8  1.00  212.35  21235.00
414.3  1.00  217.67  21767.00
415.8  1.00  229.67  22967.00
417.4  1.00  239.17  23917.00
418.9  1.00  243.56  24356.00
420.4  1.00  252.91  25291.00
421.9  1.00  257.49  25749.00
423.5  1.00  258.41  25841.00
425.0  1.00  261.91  26191.00
426.5  1.00  264.31  26431.00
428.0  1.00  269.84  26984.00
429.5  1.00  270.71  27071.00
431.1  1.00  279.93  27993.00
432.6  1.00  290.43  29043.00
434.1  1.00  297.73  29773.00
435.6  1.00  307.02  30702.00
437.1  1.00  315.64  31564.00
438.6  1.00  326.72  32672.00
440.1  1.00  334.12  33412.00
441.6  1.00  341.50  34150.00
443.1  1.00  354.51  35451.00
444.7  1.00  368.53  36853.00
446.2  1.00  380.58  38058.00
447.7  1.00  398.42  39842.00
449.2  1.00  413.57  41357.00
450.7  1.00  430.70  43070.00
452.2  1.00  441.21  44121.00
453.7  1.00  454.20  45420.00
455.2  1.00  470.29  47029.00
456.7  1.00  486.00  48600.00
458.2  1.00  502.58  50258.00
459.7  1.00  521.03  52103.00
461.2  1.00  538.91  53891.00
462.7  1.00  553.95  55395.00
464.2  1.00  570.23  57023.00
465.7  1.00  587.78  58778.00
467.2  1.00  599.32  59932.00
468.7  1.00  616.27  61627.00
470.2  1.00  627.67  62767.00
471.7  1.00  646.63  64663.00
473.2  1.00  683.21  68321.00
474.6  1.00  702.44  70244.00
476.1  1.00  707.23  70723.00
477.6  1.00  702.09  70209.00
479.1  1.00  702.93  70293.00
480.6  1.00  714.11  71411.00
482.1  1.00  725.68  72568.00
483.6  1.00  738.52  73852.00
485.1  1.00  762.48  76248.00
486.6  1.00  783.99  78399.00
488.0  1.00  812.28  81228.00
489.5  1.00  842.17  84217.00
491.0  1.00  881.29  88129.00
492.5  1.00  921.67  92167.00
494.0  1.00  968.36  96836.00
495.4  1.00  1017.28  101728.00
496.9  1.00  1071.47  107147.00
498.4  1.00  1136.23  113623.00
499.9  1.00  1202.25  120225.00
501.4  1.00  1276.41  127641.00
502.8  1.00  1353.72  135372.00
504.3  1.00  1437.60  143760.00
505.8  1.00  1530.96  153096.00
507.2  1.00  1622.35  162235.00
508.7  1.00  1713.31  171331.00
510.2  1.00  1807.45  180745.00
511.6  1.00  1908.63  190863.00
513.1  1.00  2020.10  202010.00
514.6  1.00  2133.49  213349.00
516.0  1.00  2249.99  224999.00
517.5  1.00  2375.86  237586.00
519.0  1.00  2510.07  251007.00
520.5  1.00  2644.12  264412.00
521.9  1.00  2785.11  278511.00
523.4  1.00  2931.19  293119.00
524.8  1.00  3076.38  307638.00
526.3  1.00  3225.17  322517.00
527.8  1.00  3370.72  337072.00
529.2  1.00  3502.78  350278.00
530.7  1.00  3640.49  364049.00
532.1  1.00  3766.78  376678.00
533.6  1.00  3897.14  389714.00
535.0  1.00  4023.79  402379.00
536.5  1.00  4139.68  413968.00
538.0  1.00  4257.27  425727.00
539.4  1.00  4367.30  436730.00
540.9  1.00  4499.70  449970.00
542.3  1.00  4622.71  462271.00
543.8  1.00  4727.67  472767.00
545.2  1.00  4774.49  477449.00
546.6  1.00  4805.64  480564.00
548.1  1.00  4839.13  483913.00
549.5  1.00  4865.25  486525.00
551.0  1.00  4893.17  489317.00
552.4  1.00  4918.32  491832.00
553.9  1.00  4933.96  493396.00
555.3  1.00  4953.55  495355.00
556.8  1.00  4977.57  497757.00
558.2  1.00  4996.35  499635.00
559.6  1.00  5022.06  502206.00
561.1  1.00  5054.40  505440.00
562.5  1.00  5085.05  508505.00
564.0  1.00  5125.68  512568.00
565.4  1.00  5160.74  516074.00
566.8  1.00  5199.42  519942.00
568.3  1.00  5225.10  522510.00
569.7  1.00  5246.73  524673.00
571.1  1.00  5260.89  526089.00
572.6  1.00  5273.21  527321.00
574.0  1.00  5279.56  527956.00
575.4  1.00  5284.35  528435.00
576.9  1.00  5288.52  528852.00
578.3  1.00  5289.81  528981.00
579.7  1.00  5285.02  528502.00
581.1  1.00  5279.59  527959.00
582.6  1.00  5276.57  527657.00
584.0  1.00  5275.41  527541.00
585.4  1.00  5285.34  528534.00
586.8  1.00  5329.59  532959.00
588.3  1.00  5375.45  537545.00
589.7  1.00  5421.31  542131.00
591.1  1.00  5432.16  543216.00
592.5  1.00  5423.97  542397.00
594.0  1.00  5412.66  541266.00
595.4  1.00  5390.12  539012.00
596.8  1.00  5366.22  536622.00
598.2  1.00  5343.08  534308.00
599.6  1.00  5316.86  531686.00
601.0  1.00  5299.61  529961.00
602.4  1.00  5284.84  528484.00
603.9  1.00  5267.76  526776.00
605.3  1.00  5248.30  524830.00
606.7  1.00  5220.72  522072.00
608.1  1.00  5205.16  520516.00
609.5  1.00  5190.93  519093.00
610.9  1.00  5178.96  517896.00
612.3  1.00  5158.39  515839.00
613.7  1.00  5148.29  514829.00
615.1  1.00  5116.39  511639.00
616.5  1.00  5087.64  508764.00
617.9  1.00  5088.47  508847.00
619.3  1.00  5094.91  509491.00
620.7  1.00  5113.52  511352.00
622.1  1.00  5200.97  520097.00
623.5  1.00  5338.79  533879.00
624.9  1.00  5491.92  549192.00
626.3  1.00  5614.42  561442.00
627.7  1.00  5594.23  559423.00
629.1  1.00  5554.88  555488.00
630.5  1.00  5526.23  552623.00
631.9  1.00  5470.30  547030.00
633.3  1.00  5388.74  538874.00
634.7  1.00  5329.97  532997.00
636.1  1.00  5252.74  525274.00
637.5  1.00  5155.33  515533.00
638.9  1.00  5029.71  502971.00
640.2  1.00  4872.21  487221.00
641.6  1.00  4686.24  468624.00
643.0  1.00  4494.46  449446.00
644.4  1.00  4331.12  433112.00
645.8  1.00  4188.67  418867.00
647.2  1.00  4105.47  410547.00
648.5  1.00  4039.10  403910.00
649.9  1.00  3948.85  394885.00
651.3  1.00  3872.94  387294.00
652.7  1.00  3803.58  380358.00
654.1  1.00  3719.19  371919.00
655.5  1.00  3620.66  362066.00
656.8  1.00  3515.10  351510.00
658.2  1.00  3440.70  344070.00
659.6  1.00  3376.07  337607.00
660.9  1.00  3297.13  329713.00
662.3  1.00  3209.22  320922.00
663.7  1.00  3120.88  312088.00
665.0  1.00  3035.17  303517.00
666.4  1.00  2954.88  295488.00
667.8  1.00  2896.18  289618.00
669.1  1.00  2845.55  284555.00
670.5  1.00  2812.11  281211.00
671.9  1.00  2783.65  278365.00
673.2  1.00  2774.11  277411.00
674.6  1.00  2780.00  278000.00
676.0  1.00  2802.57  280257.00
677.3  1.00  2845.57  284557.00
678.7  1.00  2912.95  291295.00
680.0  1.00  3019.17  301917.00
681.4  1.00  3165.41  316541.00
682.8  1.00  3363.36  336336.00
684.1  1.00  3626.69  362669.00
685.5  1.00  3950.99  395099.00
686.8  1.00  4341.41  434141.00
688.2  1.00  4809.14  480914.00
689.5  1.00  5314.49  531449.00
690.9  1.00  5871.14  587114.00
692.2  1.00  6461.36  646136.00
693.6  1.00  7094.85  709485.00
694.9  1.00  7751.45  775145.00
696.2  1.00  8432.49  843249.00
697.6  1.00  9107.18  910718.00
698.9  1.00  9781.02  978102.00
700.3  1.00  10427.95  1042795.00
701.6  1.00  11059.71  1105971.00
703.0  1.00  11655.75  1165575.00
704.3  1.00  12214.67  1221467.00
705.6  1.00  12706.78  1270678.00
707.0  1.00  13193.04  1319304.00
708.3  1.00  13627.17  1362717.00
709.6  1.00  14020.55  1402055.00
711.0  1.00  14380.26  1438026.00
712.3  1.00  14707.74  1470774.00
713.6  1.00  15052.41  1505241.00
714.9  1.00  15341.80  1534180.00
716.3  1.00  15644.94  1564494.00
717.6  1.00  15946.98  1594698.00
718.9  1.00  16183.86  1618386.00
720.2  1.00  16362.76  1636276.00
721.6  1.00  16531.91  1653191.00
722.9  1.00  16656.35  1665635.00
724.2  1.00  16742.21  1674221.00
725.5  1.00  16837.45  1683745.00
726.8  1.00  16903.61  1690361.00
728.1  1.00  16992.01  1699201.00
729.5  1.00  17056.73  1705673.00
730.8  1.00  17125.07  1712507.00
732.1  1.00  17164.42  1716442.00
733.4  1.00  17219.95  1721995.00
734.7  1.00  17256.51  1725651.00
736.0  1.00  17318.24  1731824.00
737.3  1.00  17348.14  1734814.00
738.6  1.00  17447.50  1744750.00
739.9  1.00  17577.00  1757700.00
741.2  1.00  17694.77  1769477.00
742.5  1.00  17865.67  1786567.00
743.8  1.00  18104.24  1810424.00
745.1  1.00  18457.43  1845743.00
746.4  1.00  18885.78  1888578.00
747.7  1.00  19333.20  1933320.00
749.0  1.00  19769.46  1976946.00
750.3  1.00  20038.27  2003827.00
751.6  1.00  20056.26  2005626.00
752.9  1.00  19894.96  1989496.00
754.2  1.00  19694.05  1969405.00
755.4  1.00  19489.74  1948974.00
756.7  1.00  19426.41  1942641.00
758.0  1.00  19464.99  1946499.00
759.3  1.00  19622.47  1962247.00
760.6  1.00  19818.36  1981836.00
761.9  1.00  20006.45  2000645.00
763.1  1.00  20123.80  2012380.00
764.4  1.00  20255.17  2025517.00
765.7  1.00  20365.80  2036580.00
767.0  1.00  20466.70  2046670.00
768.2  1.00  20562.30  2056230.00
769.5  1.00  20623.93  2062393.00
770.8  1.00  20737.13  2073713.00
772.0  1.00  20779.37  2077937.00
773.3  1.00  20850.87  2085087.00
774.6  1.00  20922.97  2092297.00
775.8  1.00  20981.83  2098183.00
777.1  1.00  21021.24  2102124.00
778.4  1.00  21018.57  2101857.00
779.6  1.00  21018.16  2101816.00
780.9  1.00  21005.87  2100587.00
782.1  1.00  20954.91  2095491.00
783.4  1.00  20967.51  2096751.00
784.6  1.00  20994.83  2099483.00
785.9  1.00  21161.21  2116121.00
787.1  1.00  21457.41  2145741.00
788.4  1.00  21715.82  2171582.00
789.6  1.00  21738.56  2173856.00
790.9  1.00  21580.26  2158026.00
792.1  1.00  21367.89  2136789.00
793.4  1.00  21161.76  2116176.00
794.6  1.00  21015.39  2101539.00
795.8  1.00  20889.02  2088902.00
797.1  1.00  20769.89  2076989.00
798.3  1.00  20665.59  2066559.00
799.5  1.00  20622.60  2062260.00
800.8  1.00  20570.29  2057029.00
802.0  1.00  20511.16  2051116.00
803.2  1.00  20444.26  2044426.00
804.5  1.00  20410.35  2041035.00
805.7  1.00  20334.37  2033437.00
806.9  1.00  20270.79  2027079.00
808.1  1.00  20226.15  2022615.00
809.4  1.00  20173.73  2017373.00
810.6  1.00  20121.92  2012192.00
811.8  1.00  20095.83  2009583.00
813.0  1.00  20099.76  2009976.00
814.2  1.00  20108.98  2010898.00
815.4  1.00  20158.73  2015873.00
816.6  1.00  20174.17  2017417.00
817.9  1.00  20170.68  2017068.00
819.1  1.00  20131.43  2013143.00
820.3  1.00  20058.92  2005892.00
821.5  1.00  19989.00  1998900.00
822.7  1.00  19947.78  1994778.00
823.9  1.00  19901.14  1990114.00
825.1  1.00  19884.70  1988470.00
826.3  1.00  19836.80  1983680.00
827.5  1.00  19807.70  1980770.00
828.7  1.00  19777.63  1977763.00
829.9  1.00  19733.69  1973369.00
831.0  1.00  19716.84  1971684.00
832.2  1.00  19702.33  1970233.00
833.4  1.00  19688.76  1968876.00
834.6  1.00  19691.88  1969188.00
835.8  1.00  19703.88  1970388.00
837.0  1.00  19707.57  1970757.00
838.1  1.00  19757.53  1975753.00
839.3  1.00  19791.03  1979103.00
840.5  1.00  19826.49  1982649.00
841.7  1.00  19882.10  1988210.00
842.9  1.00  19941.01  1994101.00
844.0  1.00  19986.28  1998628.00
845.2  1.00  20058.41  2005841.00
846.4  1.00  20103.18  2010318.00
847.5  1.00  20211.34  2021134.00
848.7  1.00  20294.91  2029491.00
849.9  1.00  20384.56  2038456.00
851.0  1.00  20425.33  2042533.00
852.2  1.00  20450.08  2045008.00
853.3  1.00  20439.82  2043982.00
854.5  1.00  20446.92  2044692.00
855.6  1.00  20438.48  2043848.00
856.8  1.00  20438.23  2043823.00
857.9  1.00  20423.68  2042368.00
859.1  1.00  20470.75  2047075.00
860.2  1.00  20471.96  2047196.00
861.4  1.00  20484.67  2048467.00
862.5  1.00  20498.69  2049869.00
863.7  1.00  20536.38  2053638.00
864.8  1.00  20534.31  2053431.00
865.9  1.00  20520.50  2052050.00
867.1  1.00  20534.28  2053428.00
868.2  1.00  20528.42  2052842.00
869.3  1.00  20533.81  2053381.00
870.5  1.00  20497.16  2049716.00
871.6  1.00  20476.80  2047680.00
872.7  1.00  20489.51  2048951.00
873.9  1.00  20489.35  2048935.00
875.0  1.00  20448.82  2044882.00
876.1  1.00  20421.90  2042190.00
877.2  1.00  20420.89  2042089.00
878.3  1.00  20415.89  2041589.00
879.4  1.00  20403.07  2040307.00
880.5  1.00  20393.09  2039309.00
881.7  1.00  20379.15  2037915.00
882.8  1.00  20365.86  2036586.00
883.9  1.00  20367.61  2036761.00
885.0  1.00  20328.67  2032867.00
886.1  1.00  20291.74  2029174.00
887.2  1.00  20182.25  2018225.00
888.3  1.00  20120.42  2012042.00
889.4  1.00  20028.43  2002843.00
890.5  1.00  19973.09  1997309.00
891.6  1.00  19903.63  1990363.00
892.7  1.00  19902.09  1990209.00
893.8  1.00  19840.43  1984043.00
894.9  1.00  19816.97  1981697.00
896.0  1.00  19786.69  1978669.00
897.0  1.00  19777.25  1977725.00
898.1  1.00  19745.23  1974523.00
899.2  1.00  19721.10  1972110.00
900.3  1.00  19653.89  1965389.00
901.4  1.00  19586.57  1958657.00
902.4  1.00  19566.28  1956628.00
903.5  1.00  19504.32  1950432.00
904.6  1.00  19460.35  1946035.00
905.7  1.00  19416.44  1941644.00
906.7  1.00  19375.34  1937534.00
907.8  1.00  19353.21  1935321.00
908.9  1.00  19283.41  1928341.00
909.9  1.00  19220.41  1922041.00
911.0  1.00  19170.39  1917039.00
912.1  1.00  19086.46  1908646.00
913.1  1.00  19017.02  1901702.00
914.2  1.00  18941.67  1894167.00
915.2  1.00  18875.77  1887577.00
916.3  1.00  18822.98  1882298.00
917.3  1.00  18724.65  1872465.00
918.4  1.00  18643.31  1864331.00
919.4  1.00  18547.98  1854798.00
920.5  1.00  18487.94  1848794.00
921.5  1.00  18391.57  1839157.00
922.6  1.00  18295.66  1829566.00
923.6  1.00  18238.41  1823841.00
924.7  1.00  18157.47  1815747.00
925.7  1.00  18058.01  1805801.00
926.7  1.00  17990.80  1799080.00
927.8  1.00  17924.10  1792410.00
928.8  1.00  17868.19  1786819.00
929.9  1.00  17815.17  1781517.00
930.9  1.00  17797.60  1779760.00
931.9  1.00  17740.06  1774006.00
932.9  1.00  17737.24  1773724.00
934.0  1.00  17660.62  1766062.00
935.0  1.00  17555.92  1755592.00
936.0  1.00  17416.89  1741689.00
937.0  1.00  17304.84  1730484.00
938.1  1.00  17175.32  1717532.00
939.1  1.00  17052.03  1705203.00
940.1  1.00  16978.20  1697820.00
941.1  1.00  16939.72  1693972.00
942.1  1.00  16934.95  1693495.00
943.1  1.00  16899.85  1689985.00
944.1  1.00  16851.89  1685189.00
945.2  1.00  16745.46  1674546.00
946.2  1.00  16640.14  1664014.00
947.2  1.00  16574.30  1657430.00
948.2  1.00  16507.37  1650737.00
949.2  1.00  16414.78  1641478.00
950.2  1.00  16299.87  1629987.00
951.2  1.00  16172.58  1617258.00
952.2  1.00  16053.86  1605386.00
953.2  1.00  15970.50  1597050.00
954.2  1.00  15907.14  1590714.00
955.2  1.00  15790.60  1579060.00
956.2  1.00  15665.44  1566544.00
957.2  1.00  15596.74  1559674.00
958.2  1.00  15509.52  1550952.00
959.2  1.00  15484.50  1548450.00
960.1  1.00  15415.58  1541558.00
961.1  1.00  15416.08  1541608.00
962.1  1.00  15361.50  1536150.00
963.1  1.00  15335.86  1533586.00
964.1  1.00  15347.93  1534793.00
965.1  1.00  15358.79  1535879.00
966.1  1.00  15328.81  1532881.00
967.0  1.00  15399.08  1539908.00
968.0  1.00  15330.09  1533009.00
969.0  1.00  15382.32  1538232.00
970.0  1.00  15347.74  1534774.00
971.0  1.00  15390.51  1539051.00
971.9  1.00  15452.14  1545214.00
972.9  1.00  15503.24  1550324.00
973.9  1.00  15562.47  1556247.00
974.9  1.00  15610.08  1561008.00
975.8  1.00  15667.14  1566714.00
976.8  1.00  15802.68  1580268.00
977.8  1.00  15869.28  1586928.00
978.8  1.00  15912.70  1591270.00
979.7  1.00  16066.35  1606635.00
981.4  1.00  16841.66  1684166.00
985.3  1.00  16958.19  1695819.00
989.3  1.00  17130.69  1713069.00
993.3  1.00  17262.02  1726202.00
997.2  1.00  17343.38  1734338.00
1001.2  1.00  17463.85  1746385.00
1005.2  1.00  17649.82  1764982.00
1009.1  1.00  17924.99  1792499.00
1013.1  1.00  18229.30  1822930.00
1017.1  1.00  18530.03  1853003.00
1021.0  1.00  18779.71  1877971.00
1025.0  1.00  19033.87  1903387.00
1029.0  1.00  19219.64  1921964.00
1032.9  1.00  19426.07  1942607.00
1036.9  1.00  19690.58  1969058.00
1040.9  1.00  19970.38  1997038.00
1044.8  1.00  20278.97  2027897.00
1048.8  1.00  20537.07  2053707.00
1052.7  1.00  20754.98  2075498.00
1056.7  1.00  20905.90  2090590.00
1060.7  1.00  21013.79  2101379.00
1064.6  1.00  21100.97  2110097.00
1068.6  1.00  21101.47  2110147.00
1072.5  1.00  21058.54  2105854.00
1076.5  1.00  21000.83  2100083.00
1080.4  1.00  20924.86  2092486.00
1084.4  1.00  20853.18  2085318.00
1088.3  1.00  20758.74  2075874.00
1092.3  1.00  20587.24  2058724.00
1096.2  1.00  20379.19  2037919.00
1100.2  1.00  20189.94  2018994.00
1104.1  1.00  19933.69  1993369.00
1108.1  1.00  19700.71  1970071.00
1112.0  1.00  19452.29  1945229.00
1116.0  1.00  19135.09  1913509.00
1119.9  1.00  18782.54  1878254.00
1123.9  1.00  18439.01  1843901.00
1127.8  1.00  17922.56  1792256.00
1131.8  1.00  17266.92  1726692.00
1135.7  1.00  16515.68  1651568.00
1139.6  1.00  15708.64  1570864.00
1143.6  1.00  14937.61  1493761.00
1147.5  1.00  14292.31  1429231.00
1151.4  1.00  13751.73  1375173.00
1155.4  1.00  13402.82  1340282.00
1159.3  1.00  13190.20  1319020.00
1163.2  1.00  12994.47  1299447.00
1167.2  1.00  12889.14  1288914.00
1171.1  1.00  12820.27  1282027.00
1175.0  1.00  12735.46  1273546.00
1179.0  1.00  12663.37  1266337.00
1182.9  1.00  12628.05  1262805.00
1186.8  1.00  12577.37  1257737.00
1190.7  1.00  12473.58  1247358.00
1194.7  1.00  12371.17  1237117.00
1198.6  1.00  12305.37  1230537.00
1202.5  1.00  12274.37  1227437.00
1206.4  1.00  12265.64  1226564.00
1210.3  1.00  12268.42  1226842.00
1214.2  1.00  12290.95  1229095.00
1218.2  1.00  12323.12  1232312.00
1222.1  1.00  12359.85  1235985.00
1226.0  1.00  12409.35  1240935.00
1229.9  1.00  12446.52  1244652.00
1233.8  1.00  12474.95  1247495.00
1237.7  1.00  12518.87  1251887.00
1241.6  1.00  12546.64  1254664.00
1245.5  1.00  12546.21  1254621.00
1249.4  1.00  12552.05  1255205.00
1253.3  1.00  12558.87  1255887.00
1257.2  1.00  12566.61  1256661.00
1261.1  1.00  12551.43  1255143.00
1265.0  1.00  12515.04  1251504.00
1268.9  1.00  12447.63  1244763.00
1272.8  1.00  12429.80  1242980.00
1276.7  1.00  12438.92  1243892.00
1280.6  1.00  12404.83  1240483.00
1284.5  1.00  12300.57  1230057.00
1288.4  1.00  12188.87  1218887.00
1292.3  1.00  12034.00  1203400.00
1296.2  1.00  11855.66  1185566.00
1300.1  1.00  11645.73  1164573.00
1303.9  1.00  11389.57  1138957.00
1307.8  1.00  11116.58  1111658.00
1311.7  1.00  10824.34  1082434.00
1315.6  1.00  10521.95  1052195.00
1319.5  1.00  10196.97  1019697.00
1323.3  1.00  9872.80  987280.00
1327.2  1.00  9552.35  955235.00
1331.1  1.00  9231.35  923135.00
1335.0  1.00  8904.64  890464.00
1338.8  1.00  8615.10  861510.00
1342.7  1.00  8360.76  836076.00
1346.5  1.00  8085.03  808503.00
1350.4  1.00  7837.55  783755.00
1354.3  1.00  7584.39  758439.00
1358.1  1.00  7331.78  733178.00
1362.0  1.00  7105.52  710552.00
1365.8  1.00  6886.01  688601.00
1369.7  1.00  6666.82  666682.00
1373.5  1.00  6375.62  637562.00
1377.4  1.00  6003.84  600384.00
1381.2  1.00  5580.16  558016.00
1385.1  1.00  5147.13  514713.00
1389.0  1.00  4706.31  470631.00
1392.8  1.00  4265.57  426557.00
1396.6  1.00  3873.19  387319.00
1400.5  1.00  3534.14  353414.00
1404.3  1.00  3267.91  326791.00
1408.2  1.00  3057.70  305770.00
1412.0  1.00  2885.51  288551.00
1415.8  1.00  2768.12  276812.00
1419.6  1.00  2661.30  266130.00
1423.5  1.00  2577.94  257794.00
1427.3  1.00  2525.04  252504.00
1431.1  1.00  2486.20  248620.00
1434.9  1.00  2451.18  245118.00
1438.8  1.00  2424.58  242458.00
1442.6  1.00  2409.55  240955.00
1446.4  1.00  2389.52  238952.00
1450.2  1.00  2378.43  237843.00
1454.0  1.00  2368.92  236892.00
1457.8  1.00  2374.53  237453.00
1461.6  1.00  2388.58  238858.00
1465.4  1.00  2400.72  240072.00
1469.2  1.00  2416.81  241681.00
1473.0  1.00  2444.74  244474.00
1476.8  1.00  2489.09  248909.00
1480.7  1.00  2543.36  254336.00
1484.4  1.00  2602.24  260224.00
1488.2  1.00  2670.64  267064.00
1492.0  1.00  2745.48  274548.00
1495.8  1.00  2814.18  281418.00
1499.6  1.00  2870.78  287078.00
1503.4  1.00  2917.20  291720.00
1507.2  1.00  2960.35  296035.00
1510.9  1.00  2996.70  299670.00
1514.7  1.00  3021.82  302182.00
1518.5  1.00  3048.66  304866.00
1522.3  1.00  3086.81  308681.00
1526.0  1.00  3135.78  313578.00
1529.8  1.00  3181.31  318131.00
1533.6  1.00  3217.74  321774.00
1537.3  1.00  3266.16  326616.00
1541.1  1.00  3330.56  333056.00
1544.8  1.00  3390.40  339040.00
1548.6  1.00  3446.54  344654.00
1552.4  1.00  3499.01  349901.00
1556.1  1.00  3542.70  354270.00
1559.9  1.00  3581.43  358143.00
1563.6  1.00  3629.69  362969.00
1567.3  1.00  3686.97  368697.00
1571.1  1.00  3726.87  372687.00
1574.8  1.00  3772.26  377226.00
1578.6  1.00  3818.41  381841.00
1582.3  1.00  3850.27  385027.00
1586.0  1.00  3877.53  387753.00
1589.8  1.00  3901.73  390173.00
1593.5  1.00  3917.66  391766.00
1597.2  1.00  3937.64  393764.00
1600.9  1.00  3960.95  396095.00
1604.7  1.00  3980.17  398017.00
1608.4  1.00  4002.78  400278.00
1612.1  1.00  4015.42  401542.00
1615.8  1.00  4027.64  402764.00
1619.5  1.00  4054.42  405442.00
1623.2  1.00  4070.81  407081.00
1626.9  1.00  4077.84  407784.00
1630.6  1.00  4082.54  408254.00
1634.3  1.00  4094.48  409448.00
1638.0  1.00  4099.50  409950.00
1641.7  1.00  4098.61  409861.00
1645.4  1.00  4095.34  409534.00
1649.1  1.00  4088.97  408897.00
1652.8  1.00  4083.22  408322.00
1656.4  1.00  4068.79  406879.00
1660.1  1.00  4057.92  405792.00
1663.8  1.00  4036.33  403633.00
1667.5  1.00  4017.47  401747.00
1671.1  1.00  4003.90  400390.00
1674.8  1.00  3974.65  397465.00
1678.5  1.00  3957.32  395732.00
1682.1  1.00  3943.02  394302.00
1685.8  1.00  3921.67  392167.00
1689.5  1.00  3888.71  388871.00
1693.1  1.00  3844.14  384414.00
1696.8  1.00  3800.00  380000.00
1700.4  1.00  3750.86  375086.00
1704.0  1.00  3698.83  369883.00
1707.7  1.00  3633.74  363374.00
1711.3  1.00  3558.32  355832.00
1715.0  1.00  3492.45  349245.00
1718.6  1.00  3434.27  343427.00
1722.2  1.00  3379.23  337923.00
1725.9  1.00  3324.31  332431.00
1729.5  1.00  3272.65  327265.00
1733.1  1.00  3237.85  323785.00
1736.7  1.00  3215.46  321546.00
1740.3  1.00  3173.38  317338.00
1744.0  1.00  3133.17  313317.00
1747.5  1.00  3088.37  308837.00
1751.2  1.00  3031.64  303164.00
1754.8  1.00  2974.10  297410.00
1758.4  1.00  2921.99  292199.00
1762.0  1.00  2875.56  287556.00
1765.5  1.00  2840.52  284052.00
1769.1  1.00  2818.40  281840.00
1772.7  1.00  2792.22  279222.00
1776.3  1.00  2760.80  276080.00
1779.9  1.00  2728.26  272826.00
1783.5  1.00  2707.33  270733.00
1787.0  1.00  2681.43  268143.00
1790.6  1.00  2658.31  265831.00
1794.2  1.00  2648.03  264803.00
1797.8  1.00  2636.14  263614.00
1801.3  1.00  2624.56  262456.00
1804.9  1.00  2610.13  261013.00
1808.4  1.00  2603.17  260317.00
1812.0  1.00  2591.92  259192.00
1815.5  1.00  2576.13  257613.00
1819.1  1.00  2554.01  255401.00
1822.6  1.00  2538.72  253872.00
1826.2  1.00  2518.11  251811.00
1829.7  1.00  2486.66  248666.00
1833.2  1.00  2459.31  245931.00
1836.8  1.00  2424.85  242485.00
1840.3  1.00  2381.63  238163.00
1843.8  1.00  2343.83  234383.00
1847.3  1.00  2302.28  230228.00
1850.8  1.00  2251.20  225120.00
1854.3  1.00  2188.69  218869.00
1857.8  1.00  2121.60  212160.00
1861.3  1.00  2065.84  206584.00
1864.8  1.00  1990.35  199035.00
1868.3  1.00  1877.87  187787.00
1871.8  1.00  1738.24  173824.00
1875.3  1.00  1590.83  159083.00
1878.8  1.00  1469.46  146946.00
1882.3  1.00  1336.83  133683.00
1885.8  1.00  1212.68  121268.00
1889.3  1.00  1112.13  111213.00
1892.7  1.00  1035.92  103592.00
1896.2  1.00  980.78  98078.00
1899.7  1.00  928.37  92837.00
1901.7  1.00  646.62  64662.00
1904.5  1.00  0.00  0.00
1907.2  1.00  332.50  33250.00
1910.0  1.00  734.97  73497.00
1912.7  1.00  80.07  8007.00
1915.5  1.00  338.70  33870.00
1918.2  1.00  644.10  64410.00
1921.0  1.00  206.30  20630.00
1923.7  1.00  333.50  33350.00
1926.5  1.00  586.20  58620.00
1929.2  1.00  128.27  12827.00
1932.0  1.00  347.60  34760.00
1934.7  1.00  656.60  65660.00
1937.4  1.00  155.08  15508.00
1940.2  1.00  338.07  33807.00
1942.9  1.00  669.90  66990.00
1945.6  1.00  241.60  24160.00
1948.3  1.00  361.00  36100.00
1951.1  1.00  602.00  60200.00
1953.8  1.00  150.00  15000.00
1956.5  1.00  389.35  38935.00
1959.2  1.00  687.70  68770.00
1961.9  1.00  268.20  26820.00
1964.6  1.00  386.75  38675.00
1967.3  1.00  652.67  65267.00
1970.0  1.00  266.40  26640.00
1972.8  1.00  441.25  44125.00
1975.5  1.00  731.67  73167.00
1978.2  1.00  321.20  32120.00
1980.9  1.00  466.40  46640.00
1983.5  1.00  727.08  72708.00
1986.2  1.00  320.10  32010.00
1988.9  1.00  494.70  49470.00
1991.6  1.00  753.13  75313.00
1994.3  1.00  375.48  37548.00
1997.0  1.00  519.00  51900.00
1999.7  1.00  804.07  80407.00
2002.3  1.00  402.73  40273.00
2005.0  1.00  575.33  57533.00
2007.7  1.00  860.00  86000.00
2010.4  1.00  513.90  51390.00
2013.0  1.00  597.45  59745.00
2015.7  1.00  880.92  88092.00
2018.4  1.00  425.50  42550.00
2021.0  1.00  595.00  59500.00
2023.7  1.00  876.27  87627.00
2026.4  1.00  478.83  47883.00
2029.0  1.00  618.57  61857.00
2031.7  1.00  845.00  84500.00
2034.3  1.00  450.67  45067.00
2037.0  1.00  619.30  61930.00
2039.6  1.00  844.00  84400.00
2042.3  1.00  477.42  47742.00
2044.9  1.00  617.10  61710.00
2047.5  1.00  925.65  92565.00
2050.2  1.00  532.00  53200.00
2052.8  1.00  700.00  70000.00
2055.4  1.00  980.58  98058.00
2058.1  1.00  560.00  56000.00
2060.7  1.00  698.75  69875.00
2063.3  1.00  919.60  91960.00
2065.9  1.00  530.42  53042.00
2068.6  1.00  697.92  69792.00
2071.2  1.00  948.60  94860.00
2073.8  1.00  587.65  58765.00
2076.4  1.00  729.73  72973.00
2079.0  1.00  983.50  98350.00
2081.6  1.00  590.80  59080.00
2084.2  1.00  733.63  73363.00
2086.8  1.00  961.63  96163.00
2089.4  1.00  595.70  59570.00
2092.1  1.00  765.00  76500.00
2094.7  1.00  988.75  98875.00
2097.2  1.00  538.33  53833.00
2099.8  1.00  768.60  76860.00
2102.4  1.00  995.17  99517.00
2105.0  1.00  627.00  62700.00
2107.6  1.00  740.57  74057.00
2110.2  1.00  966.17  96617.00
2112.8  1.00  601.30  60130.00
2115.3  1.00  779.40  77940.00
2117.9  1.00  1073.62  107362.00
2120.5  1.00  641.30  64130.00
2123.1  1.00  789.75  78975.00
2125.6  1.00  1083.48  108348.00
2128.2  1.00  643.87  64387.00
2130.8  1.00  760.50  76050.00
2133.3  1.00  1056.00  105600.00
2135.9  1.00  676.58  67658.00
2138.4  1.00  795.60  79560.00
2141.0  1.00  1057.80  105780.00
2143.6  1.00  615.65  61565.00
2146.1  1.00  793.35  79335.00
2148.7  1.00  1057.20  105720.00
2151.2  1.00  674.67  67467.00
2153.8  1.00  853.57  85357.00
2156.3  1.00  1151.80  115180.00
2158.8  1.00  679.27  67927.00
2161.4  1.00  855.02  85502.00
2163.9  1.00  1061.40  106140.00
2166.4  1.00  591.33  59133.00
2169.0  1.00  798.30  79830.00
2171.5  1.00  1064.40  106440.00
2174.0  1.00  654.50  65450.00
2176.5  1.00  807.30  80730.00
2179.1  1.00  1023.97  102397.00
2181.6  1.00  577.92  57792.00
2184.1  1.00  739.20  73920.00
2186.6  1.00  1035.65  103565.00
2189.1  1.00  577.80  57780.00
2191.6  1.00  751.33  75133.00
2194.1  1.00  1029.72  102972.00
2196.6  1.00  543.47  54347.00
2199.2  1.00  732.55  73255.00
2201.7  1.00  1074.50  107450.00
2204.1  1.00  513.10  51310.00
2206.6  1.00  708.70  70870.00
2209.1  1.00  1021.95  102195.00
2211.6  1.00  494.87  49487.00
2214.1  1.00  722.32  72232.00
2216.6  1.00  1063.53  106353.00
2219.1  1.00  493.78  49378.00
2221.6  1.00  685.20  68520.00
2224.0  1.00  1104.90  110490.00
2226.5  1.00  532.70  53270.00
2229.0  1.00  647.13  64713.00
2231.5  1.00  995.80  99580.00
2233.9  1.00  423.32  42332.00
2236.4  1.00  694.80  69480.00
2238.9  1.00  1046.25  104625.00
2241.3  1.00  427.53  42753.00
2243.8  1.00  621.87  62187.00
2246.2  1.00  969.17  96917.00
2248.7  1.00  385.67  38567.00
2251.2  1.00  576.50  57650.00
2253.6  1.00  921.60  92160.00
2256.1  1.00  384.00  38400.00
2258.5  1.00  537.83  53783.00
2260.9  1.00  920.40  92040.00
2263.4  1.00  307.07  30707.00
2265.8  1.00  538.53  53853.00
2268.3  1.00  885.12  88512.00
2270.7  1.00  307.07  30707.00
2273.1  1.00  498.55  49855.00
2275.6  1.00  806.40  80640.00
2278.0  1.00  230.60  23060.00
2280.4  1.00  423.32  42332.00
2282.8  1.00  774.33  77433.00
2285.3  1.00  311.07  31107.00
2287.7  1.00  507.65  50765.00
2290.1  1.00  830.20  83020.00
2292.5  1.00  198.42  19842.00
2294.9  1.00  434.68  43468.00
2297.3  1.00  791.00  79100.00
2299.7  1.00  236.90  23690.00
2302.1  1.00  432.12  43212.00
2304.5  1.00  784.00  78400.00
2306.9  1.00  156.80  15680.00
2309.3  1.00  274.28  27428.00
2311.7  1.00  667.25  66725.00
2314.1  1.00  78.77  7877.00
2316.5  1.00  354.60  35460.00
2318.9  1.00  709.50  70950.00
2321.3  1.00  79.23  7923.00
2323.7  1.00  279.53  27953.00
2326.1  1.00  685.10  68510.00
2328.4  1.00  81.37  8137.00
2330.8  1.00  204.50  20450.00
2333.2  1.00  658.93  65893.00
2335.6  1.00  41.52  4152.00
2337.9  1.00  250.40  25040.00
2340.3  1.00  587.77  58777.00
2342.7  1.00  0.00  0.00
2345.0  1.00  297.27  29727.00
2347.4  1.00  637.50  63750.00
2349.7  1.00  0.00  0.00
2352.1  1.00  257.30  25730.00
2354.4  1.00  601.77  60177.00
2356.8  1.00  43.17  4317.00
2359.2  1.00  303.33  30333.00
2361.5  1.00  654.50  65450.00
2363.8  1.00  0.00  0.00
2366.2  1.00  176.53  17653.00
2368.5  1.00  578.50  57850.00
2370.9  1.00  0.00  0.00
2373.2  1.00  224.83  22483.00
2375.5  1.00  543.00  54300.00
2377.9  1.00  0.00  0.00
2380.2  1.00  183.27  18327.00
2382.5  1.00  551.40  55140.00
2384.8  1.00  0.00  0.00
2387.2  1.00  93.77  9377.00
2389.5  1.00  519.38  51938.00
2391.8  1.00  0.00  0.00
2394.1  1.00  191.93  19193.00
2396.4  1.00  532.22  53222.00
2398.7  1.00  0.00  0.00
2401.0  1.00  98.90  9890.00
2403.3  1.00  498.00  49800.00
2405.6  1.00  0.00  0.00
2407.9  1.00  100.20  10020.00
2410.2  1.00  551.47  55147.00
2412.5  1.00  0.00  0.00
2414.8  1.00  51.35  5135.00
2417.1  1.00  464.55  46455.00
2419.4  1.00  -52.10  -5210.00
2421.7  1.00  0.00  0.00
2424.0  1.00  475.50  47550.00
2426.2  1.00  -107.00  -10700.00
2428.5  1.00  0.00  0.00
2430.8  1.00  490.50  49050.00
2433.1  1.00  -55.32  -5532.00
2435.4  1.00  55.95  5595.00
2437.6  1.00  559.50  55950.00
2439.9  1.00  -56.15  -5615.00
2442.2  1.00  0.00  0.00
2444.4  1.00  516.90  51690.00
2446.7  1.00  -58.40  -5840.00
2448.9  1.00  0.00  0.00
2451.2  1.00  476.80  47680.00
2453.4  1.00  -60.27  -6027.00
2455.7  1.00  0.00  0.00
2457.9  1.00  549.45  54945.00
2460.2  1.00  -61.65  -6165.00
2462.4  1.00  0.00  0.00
2464.7  1.00  441.58  44158.00
2466.9  1.00  -64.20  -6420.00
2469.2  1.00  64.82  6482.00
2471.4  1.00  590.85  59085.00
2473.6  1.00  -66.95  -6695.00
2475.9  1.00  0.00  0.00
2478.1  1.00  546.53  54653.00
2480.3  1.00  -139.23  -13923.00
2482.5  1.00  0.00  0.00
2484.8  1.00  436.90  43690.00
2487.0  1.00  -296.27  -29627.00
2489.2  1.00  0.00  0.00
2491.4  1.00  537.95  53795.00
2493.6  1.00  -313.53  -31353.00
2495.8  1.00  0.00  0.00
2498.0  1.00  405.33  40533.00
2500.2  1.00  -337.00  -33700.00
2502.4  1.00  0.00  0.00
2504.6  1.00  563.40  56340.00
2506.8  1.00  97.42  9742.00
