/*** Spectra Vista SIG Data ***/
name= RT2.sig
comm= Resampled spectral data SIG file reprocesed for matching/overlap;Averaged Ref/Tar of files: RD5T4,RD5T5,RD5T6
data=
346.0  366.28  93.64  25.57
356.0  580.02  114.37  19.72
366.0  764.64  127.63  16.69
376.0  1054.72  146.21  13.86
386.0  1321.48  152.88  11.57
396.0  1668.03  186.43  11.18
406.0  2032.56  191.42  9.42
416.0  2484.09  226.03  9.10
426.0  2825.64  245.49  8.69
436.0  3449.00  281.17  8.15
446.0  4016.12  324.01  8.07
456.0  4559.32  343.98  7.54
466.0  5430.31  408.59  7.52
476.0  6200.82  451.43  7.28
486.0  6683.18  477.04  7.14
496.0  7759.25  552.85  7.13
506.0  8620.16  625.14  7.25
516.0  8958.85  664.28  7.41
526.0  9944.82  777.81  7.82
536.0  11306.85  941.75  8.33
546.0  12443.50  1070.48  8.60
556.0  12537.38  1120.52  8.94
566.0  13373.89  1273.28  9.52
576.0  14717.24  1558.17  10.59
586.0  15778.76  1926.16  12.21
596.0  16643.71  2340.33  14.06
606.0  16939.11  2833.91  16.73
616.0  18066.83  3659.88  20.26
626.0  19907.23  4322.96  21.72
636.0  19564.29  5064.30  25.89
646.0  19659.63  6089.39  30.97
656.0  19192.34  6325.60  32.96
666.0  20282.32  6352.93  31.32
676.0  21596.49  7041.66  32.61
686.0  23461.59  9641.80  41.10
696.0  24117.97  12147.26  50.37
706.0  24329.51  13338.69  54.83
716.0  23886.32  13649.68  57.14
726.0  23086.04  13558.39  58.73
736.0  22569.89  13662.39  60.53
746.0  23814.03  15087.01  63.35
756.0  24266.56  15443.76  63.64
766.0  25278.75  16843.91  66.63
776.0  25925.56  17753.43  68.48
786.0  26060.85  18463.64  70.85
796.0  25580.60  18041.74  70.53
806.0  24835.91  17923.11  72.17
816.0  24700.16  18232.36  73.81
826.0  24523.61  18252.16  74.43
836.0  24895.68  18795.80  75.50
846.0  25503.02  19699.82  77.25
856.0  25926.24  20141.32  77.69
866.0  26083.86  20559.09  78.82
876.0  26142.33  20797.58  79.56
886.0  26278.55  20793.16  79.13
896.0  26059.51  20527.01  78.77
906.0  26042.54  20439.45  78.48
916.0  25872.97  20118.92  77.76
926.0  25848.12  19650.49  76.02
936.0  26639.41  19416.32  72.89
946.0  27323.34  18980.17  69.47
956.0  27983.10  18206.22  65.06
966.0  28580.08  18026.78  63.07
976.0  29061.46  18233.18  62.74
986.0  29600.63  15033.57  50.79
996.0  29854.54  16118.30  53.99
1006.0  29773.67  16664.76  55.97
1016.0  29961.72  17318.28  57.80
1026.0  29958.18  17910.94  59.79
1036.0  29727.72  18276.37  61.48
1046.0  29945.01  18930.73  63.22
1056.0  30102.43  19459.18  64.64
1066.0  30105.99  19698.30  65.43
1076.0  29996.46  19660.56  65.54
1086.0  30084.70  19570.90  65.05
1096.0  30105.40  19268.37  64.00
1106.0  30068.25  18835.90  62.64
1116.0  29868.35  18236.36  61.06
1126.0  29809.45  17381.12  58.31
1136.0  29822.39  15863.57  53.19
1146.0  29809.91  14029.33  47.06
1156.0  29735.93  12868.96  43.28
1166.0  29672.84  12452.90  41.97
1176.0  29648.36  12296.71  41.48
1186.0  29704.47  12194.68  41.05
1196.0  29371.18  11952.55  40.69
1206.0  29121.56  11854.25  40.71
1216.0  28966.90  11903.03  41.09
1226.0  28785.60  12012.55  41.73
1236.0  28657.09  12146.64  42.39
1246.0  28484.90  12225.33  42.92
1256.0  28333.73  12263.81  43.28
1266.0  28154.79  12233.37  43.45
1276.0  28214.44  12202.32  43.25
1286.0  28244.54  12042.17  42.64
1296.0  28080.90  11667.03  41.55
1306.0  27749.33  11071.95  39.90
1316.0  27339.86  10333.39  37.80
1326.0  26940.91  9480.92  35.19
1336.0  26516.39  8611.50  32.48
1346.0  26100.07  7835.47  30.02
1356.0  25456.23  7116.04  27.95
1366.0  25028.25  6489.51  25.93
1376.0  24975.46  5776.51  23.13
1386.0  24740.24  4630.15  18.72
1396.0  24477.47  3528.75  14.42
1406.0  24216.63  2798.83  11.56
1416.0  24200.46  2421.39  10.01
1426.0  24158.30  2243.08  9.28
1436.0  24072.41  2154.79  8.95
1446.0  23956.60  2111.23  8.81
1456.0  23813.94  2104.34  8.84
1466.0  23700.42  2126.94  8.97
1476.0  23484.85  2185.36  9.31
1486.0  23331.72  2313.68  9.92
1496.0  23130.98  2468.01  10.67
1506.0  22945.06  2588.05  11.28
1516.0  22702.48  2702.36  11.90
1526.0  22502.83  2840.53  12.62
1536.0  22328.41  2979.35  13.34
1546.0  22104.85  3106.20  14.05
1556.0  21942.04  3221.20  14.68
1566.0  21758.45  3319.96  15.26
1576.0  21478.18  3450.14  16.06
1586.0  21278.88  3544.48  16.66
1596.0  21035.80  3611.31  17.17
1606.0  20794.20  3678.26  17.69
1616.0  20552.01  3745.46  18.22
1626.0  20323.44  3812.00  18.76
1636.0  20065.83  3844.85  19.16
1646.0  19774.62  3840.82  19.42
1656.0  19480.49  3805.09  19.53
1666.0  19194.30  3764.51  19.61
1676.0  18944.19  3721.55  19.64
1686.0  18931.40  3693.63  19.51
1696.0  18711.77  3609.50  19.29
1706.0  18450.64  3489.51  18.91
1716.0  18035.90  3315.16  18.38
1726.0  17776.34  3173.41  17.85
1736.0  17557.88  3071.83  17.50
1746.0  17326.38  2962.16  17.10
1756.0  17015.40  2811.26  16.52
1766.0  16759.66  2691.96  16.06
1776.0  16615.26  2629.04  15.82
1786.0  16444.78  2559.52  15.56
1796.0  16217.15  2517.99  15.53
1806.0  16004.96  2488.83  15.55
1816.0  15766.24  2457.13  15.58
1826.0  15451.08  2406.49  15.57
1836.0  15063.08  2330.83  15.47
1846.0  14855.31  2280.00  15.35
1856.0  14691.59  2202.92  14.99
1866.0  14522.35  1899.16  13.08
1876.0  14253.69  1477.36  10.36
1886.0  14110.56  1211.69  8.59
1896.0  13808.32  1068.82  7.74
1906.0  12793.00  512.37  4.01
1916.0  12616.65  504.69  4.00
1926.0  12521.17  510.41  4.08
1936.0  12420.38  503.70  4.06
1946.0  12399.95  517.46  4.17
1956.0  12267.23  520.07  4.24
1966.0  12255.75  526.64  4.30
1976.0  12167.54  531.67  4.37
1986.0  11984.38  533.48  4.45
1996.0  11804.14  555.63  4.71
2006.0  11722.12  568.20  4.85
2016.0  11520.71  587.69  5.10
2026.0  11331.47  582.45  5.14
2036.0  11153.81  596.70  5.35
2046.0  11015.78  617.21  5.60
2056.0  10803.98  628.63  5.82
2066.0  10617.95  616.31  5.80
2076.0  10467.51  639.63  6.11
2086.0  10367.19  648.96  6.26
2096.0  10196.33  641.65  6.29
2106.0  9977.58  648.12  6.50
2116.0  9951.76  672.34  6.76
2126.0  9831.36  673.16  6.85
2136.0  9625.43  679.97  7.06
2146.0  9388.88  678.23  7.22
2156.0  9207.43  680.92  7.40
2166.0  9064.45  682.79  7.53
2176.0  8911.97  696.38  7.81
2186.0  8812.47  694.48  7.88
2196.0  8746.91  687.35  7.86
2206.0  8717.01  686.64  7.88
2216.0  8632.54  706.79  8.19
2226.0  8558.94  662.25  7.74
2236.0  8436.18  650.33  7.71
2246.0  8282.68  627.51  7.58
2256.0  8199.17  587.11  7.16
2266.0  8120.13  569.69  7.02
2276.0  8038.92  550.26  6.84
2286.0  7958.54  535.58  6.73
2296.0  7926.13  520.07  6.56
2306.0  7675.85  468.93  6.11
2316.0  7429.53  464.11  6.25
2326.0  7404.63  451.91  6.10
2336.0  7366.33  417.54  5.67
2346.0  7276.21  422.80  5.81
2356.0  7132.49  394.65  5.53
2366.0  7038.59  407.22  5.79
2376.0  6898.87  393.82  5.71
2386.0  6807.05  377.84  5.55
2396.0  6685.66  372.41  5.57
2406.0  6574.61  356.99  5.43
2416.0  6463.16  342.55  5.30
2426.0  6354.84  319.79  5.03
2436.0  6210.96  322.31  5.19
2446.0  6104.75  302.75  4.96
2456.0  6017.59  329.22  5.47
2466.0  5854.98  257.60  4.40
2476.0  5727.20  275.77  4.82
2486.0  5577.85  279.92  5.02
2496.0  5547.28  257.13  4.64
2506.0  5804.94  221.96  3.82
