/*** Spectra Vista SIG Data ***/
name= RT1.sig
comm= Resampled spectral data SIG file reprocesed for matching/overlap;Averaged Ref/Tar of files: RD6T1,RD6T2,RD6T3
data=
346.0  350.35  46.71  13.33
356.0  548.37  57.42  10.47
366.0  733.51  66.82  9.11
376.0  1020.12  74.20  7.27
386.0  1277.04  76.89  6.02
396.0  1627.44  95.61  5.87
406.0  1981.59  93.53  4.72
416.0  2426.66  110.02  4.53
426.0  2760.20  117.81  4.27
436.0  3371.96  138.44  4.11
446.0  3932.55  160.87  4.09
456.0  4458.34  177.87  3.99
466.0  5321.78  212.54  3.99
476.0  6071.69  245.19  4.04
486.0  6545.75  264.24  4.04
496.0  7607.89  310.05  4.08
506.0  8454.78  357.45  4.23
516.0  8783.27  389.06  4.43
526.0  9763.90  450.35  4.61
536.0  11118.00  537.09  4.83
546.0  12245.42  626.83  5.12
556.0  12328.74  671.69  5.45
566.0  13155.91  770.38  5.86
576.0  14507.55  927.74  6.39
586.0  15570.89  1101.25  7.07
596.0  16431.40  1279.87  7.79
606.0  16712.83  1443.61  8.64
616.0  17829.88  1727.83  9.69
626.0  19660.82  2134.44  10.86
636.0  19333.08  2465.46  12.75
646.0  19460.12  2551.48  13.11
656.0  19022.71  2644.99  13.90
666.0  20100.61  2906.95  14.46
676.0  21420.32  3429.71  16.01
686.0  23296.24  4406.21  18.91
696.0  23938.75  5137.68  21.46
706.0  24146.65  5734.05  23.75
716.0  23692.80  6138.99  25.91
726.0  22909.23  6466.34  28.23
736.0  22412.65  6789.18  30.29
746.0  23689.99  7656.72  32.32
756.0  24146.35  8390.61  34.75
766.0  25173.28  9223.68  36.64
776.0  25830.00  9997.77  38.71
786.0  26006.50  10557.70  40.60
796.0  25488.24  10947.73  42.95
806.0  24760.71  11118.07  44.90
816.0  24660.03  11521.72  46.72
826.0  24490.65  11843.82  48.36
836.0  24813.24  12288.75  49.52
846.0  25390.01  12914.18  50.86
856.0  25793.23  13504.44  52.36
866.0  25937.23  13915.56  53.65
876.0  25978.67  14205.94  54.68
886.0  26066.82  14422.61  55.33
896.0  25797.95  14347.49  55.61
906.0  25784.12  14340.45  55.62
916.0  25585.58  14116.18  55.17
926.0  25562.63  13669.15  53.47
936.0  26313.67  13245.08  50.34
946.0  26990.41  12567.82  46.56
956.0  27679.08  11618.85  41.98
966.0  28223.03  11295.24  40.02
976.0  28734.35  11447.84  39.84
986.0  29617.10  10502.27  35.46
996.0  29682.46  10851.44  36.56
1006.0  29574.85  11252.62  38.05
1016.0  29765.57  11935.04  40.10
1026.0  29729.52  12579.48  42.31
1036.0  29515.06  13179.45  44.65
1046.0  29711.45  13911.07  46.82
1056.0  29893.15  14480.93  48.44
1066.0  29897.52  14758.30  49.36
1076.0  29800.79  14736.59  49.45
1086.0  29886.99  14565.35  48.73
1096.0  29929.51  14136.37  47.23
1106.0  29866.48  13578.55  45.46
1116.0  29674.06  12892.86  43.45
1126.0  29628.74  11893.42  40.14
1136.0  29657.68  10189.69  34.36
1146.0  29635.14  8446.12  28.50
1156.0  29553.21  7499.70  25.38
1166.0  29503.66  7145.01  24.22
1176.0  29484.94  6972.85  23.65
1186.0  29538.64  6862.62  23.23
1196.0  29214.89  6702.52  22.94
1206.0  28979.48  6647.26  22.94
1216.0  28818.50  6684.27  23.19
1226.0  28656.56  6750.94  23.56
1236.0  28531.50  6830.94  23.94
1246.0  28361.18  6876.29  24.25
1256.0  28203.68  6895.69  24.45
1266.0  28029.85  6860.05  24.47
1276.0  28088.39  6801.59  24.21
1286.0  28124.94  6644.90  23.63
1296.0  27958.41  6351.14  22.72
1306.0  27627.28  5926.36  21.45
1316.0  27221.07  5422.20  19.92
1326.0  26818.19  4887.13  18.22
1336.0  26392.47  4390.95  16.64
1346.0  25960.75  3964.40  15.27
1356.0  25324.13  3595.55  14.20
1366.0  24931.33  3279.25  13.15
1376.0  24859.99  2875.70  11.57
1386.0  24632.06  2336.91  9.49
1396.0  24380.47  1844.33  7.56
1406.0  24113.09  1526.92  6.33
1416.0  24100.63  1361.88  5.65
1426.0  24059.20  1278.07  5.31
1436.0  23972.09  1236.22  5.16
1446.0  23864.15  1209.81  5.07
1456.0  23721.80  1195.46  5.04
1466.0  23605.52  1204.05  5.10
1476.0  23392.42  1229.69  5.26
1486.0  23242.80  1282.68  5.52
1496.0  23046.32  1355.39  5.88
1506.0  22839.62  1386.83  6.07
1516.0  22613.88  1432.19  6.33
1526.0  22400.45  1467.49  6.55
1536.0  22235.76  1528.13  6.87
1546.0  22015.88  1589.01  7.22
1556.0  21843.28  1645.53  7.53
1566.0  21667.65  1683.76  7.77
1576.0  21395.50  1737.63  8.12
1586.0  21183.04  1774.64  8.38
1596.0  20952.60  1795.74  8.57
1606.0  20718.70  1822.21  8.80
1616.0  20474.49  1834.74  8.96
1626.0  20247.31  1854.71  9.16
1636.0  19983.73  1861.34  9.31
1646.0  19698.46  1861.76  9.45
1656.0  19408.32  1853.39  9.55
1666.0  19124.83  1826.94  9.55
1676.0  18864.06  1789.98  9.49
1686.0  18855.84  1760.00  9.33
1696.0  18634.96  1711.91  9.19
1706.0  18370.29  1646.74  8.96
1716.0  17962.80  1563.24  8.70
1726.0  17703.75  1493.96  8.44
1736.0  17485.45  1458.70  8.34
1746.0  17265.19  1406.04  8.14
1756.0  16948.63  1343.37  7.93
1766.0  16694.46  1296.84  7.77
1776.0  16556.01  1268.09  7.66
1786.0  16371.39  1236.66  7.55
1796.0  16140.67  1214.16  7.52
1806.0  15938.14  1202.00  7.54
1816.0  15678.97  1182.95  7.54
1826.0  15392.26  1154.47  7.50
1836.0  15002.97  1113.29  7.42
1846.0  14761.21  1071.05  7.26
1856.0  14556.19  1010.62  6.94
1866.0  14407.28  921.61  6.40
1876.0  14196.45  786.38  5.54
1886.0  14007.84  651.29  4.65
1896.0  13666.82  567.01  4.15
1906.0  12741.66  309.16  2.43
1916.0  12564.20  294.32  2.34
1926.0  12460.23  303.38  2.43
1936.0  12370.80  299.05  2.42
1946.0  12350.77  296.17  2.40
1956.0  12226.83  298.15  2.44
1966.0  12235.64  309.39  2.53
1976.0  12109.13  320.97  2.65
1986.0  11959.16  302.12  2.53
1996.0  11765.88  330.09  2.81
2006.0  11671.47  344.65  2.95
2016.0  11489.77  333.25  2.90
2026.0  11296.39  343.30  3.04
2036.0  11118.89  344.24  3.10
2046.0  10967.77  350.30  3.19
2056.0  10772.24  359.40  3.34
2066.0  10586.51  354.09  3.34
2076.0  10437.29  360.75  3.46
2086.0  10345.87  361.54  3.49
2096.0  10147.65  367.85  3.63
2106.0  9962.90  358.65  3.60
2116.0  9924.42  384.36  3.87
2126.0  9819.65  377.80  3.85
2136.0  9628.14  373.62  3.88
2146.0  9347.98  358.80  3.84
2156.0  9207.07  385.39  4.19
2166.0  9045.30  369.80  4.09
2176.0  8862.98  369.20  4.17
2186.0  8784.19  368.92  4.20
2196.0  8710.92  362.41  4.16
2206.0  8676.64  351.60  4.05
2216.0  8628.13  367.51  4.26
2226.0  8514.03  351.42  4.13
2236.0  8471.23  334.32  3.95
2246.0  8264.26  330.88  4.00
2256.0  8190.87  313.65  3.83
2266.0  8126.90  310.26  3.82
2276.0  8029.96  283.13  3.53
2286.0  7925.78  267.78  3.38
2296.0  7890.23  276.62  3.51
2306.0  7669.48  243.69  3.18
2316.0  7409.17  266.70  3.60
2326.0  7407.33  264.48  3.57
2336.0  7352.94  236.51  3.22
2346.0  7306.66  237.54  3.25
2356.0  7113.81  232.27  3.27
2366.0  7033.05  218.87  3.11
2376.0  6902.02  220.27  3.19
2386.0  6802.63  219.23  3.22
2396.0  6698.31  232.02  3.46
2406.0  6580.89  176.54  2.68
2416.0  6486.45  185.83  2.86
2426.0  6373.82  172.93  2.71
2436.0  6209.95  184.47  2.97
2446.0  6115.19  162.14  2.65
2456.0  6033.36  157.76  2.61
2466.0  5852.24  139.58  2.39
2476.0  5728.44  155.95  2.72
2486.0  5584.08  143.58  2.57
2496.0  5488.96  132.75  2.42
2506.0  5754.08  161.07  2.80
