/*** Spectra Vista SIG Data ***/
name= GB.sig
comm= Averaged Ref/Tar of files: GD4B1,GD4B2,GD4B3,GD4B4
data=
346.4  1.00  -144.60  -14459.75
347.9  1.00  -138.68  -13867.75
349.5  1.00  -141.34  -14133.75
351.1  1.00  -139.15  -13915.25
352.6  1.00  -142.95  -14294.50
354.2  1.00  -143.34  -14333.75
355.7  1.00  -145.82  -14581.50
357.3  1.00  -151.53  -15153.00
358.8  1.00  -151.34  -15133.50
360.4  1.00  -154.42  -15441.75
361.9  1.00  -151.14  -15114.25
363.5  1.00  -149.58  -14958.00
365.1  1.00  -143.55  -14355.25
366.6  1.00  -141.55  -14155.25
368.2  1.00  -135.31  -13530.50
369.7  1.00  -133.54  -13353.75
371.3  1.00  -127.75  -12774.75
372.8  1.00  -133.13  -13313.00
374.4  1.00  -129.83  -12983.00
375.9  1.00  -123.46  -12346.25
377.4  1.00  -125.22  -12522.25
379.0  1.00  -115.52  -11552.25
380.5  1.00  -115.41  -11540.50
382.1  1.00  -101.65  -10165.25
383.6  1.00  -92.99  -9299.00
385.2  1.00  -84.98  -8497.50
386.7  1.00  -82.31  -8231.00
388.3  1.00  -77.72  -7772.00
389.8  1.00  -72.47  -7247.00
391.3  1.00  -70.74  -7074.25
392.9  1.00  -65.43  -6543.25
394.4  1.00  -69.44  -6944.00
395.9  1.00  -76.30  -7630.25
397.5  1.00  -73.00  -7299.50
399.0  1.00  -60.87  -6087.25
400.6  1.00  -40.47  -4047.00
402.1  1.00  -28.12  -2812.25
403.6  1.00  -14.63  -1462.50
405.1  1.00  -7.31  -731.00
406.7  1.00  3.36  336.00
408.2  1.00  14.70  1469.75
409.7  1.00  16.80  1680.00
411.3  1.00  18.82  1881.75
412.8  1.00  21.81  2180.50
414.3  1.00  22.76  2276.25
415.8  1.00  28.25  2825.00
417.4  1.00  36.69  3668.50
418.9  1.00  41.75  4174.50
420.4  1.00  46.36  4636.00
421.9  1.00  56.15  5614.50
423.5  1.00  64.92  6491.50
425.0  1.00  73.95  7394.50
426.5  1.00  83.85  8385.00
428.0  1.00  95.85  9585.25
429.5  1.00  107.44  10744.00
431.1  1.00  115.33  11532.50
432.6  1.00  125.54  12554.00
434.1  1.00  130.32  13032.25
435.6  1.00  139.51  13951.25
437.1  1.00  145.47  14547.00
438.6  1.00  152.48  15248.25
440.1  1.00  162.17  16217.00
441.6  1.00  173.42  17341.75
443.1  1.00  184.48  18447.75
444.7  1.00  194.40  19440.25
446.2  1.00  205.45  20544.75
447.7  1.00  220.93  22092.75
449.2  1.00  237.17  23716.75
450.7  1.00  259.58  25958.25
452.2  1.00  287.29  28728.50
453.7  1.00  305.64  30563.75
455.2  1.00  328.13  32812.75
456.7  1.00  348.31  34830.50
458.2  1.00  370.47  37047.25
459.7  1.00  387.98  38797.50
461.2  1.00  407.89  40789.00
462.7  1.00  422.08  42208.00
464.2  1.00  437.74  43773.75
465.7  1.00  451.54  45153.75
467.2  1.00  465.08  46508.00
468.7  1.00  477.80  47780.00
470.2  1.00  477.21  47721.25
471.7  1.00  475.95  47595.00
473.2  1.00  493.52  49352.00
474.6  1.00  529.17  52917.00
476.1  1.00  555.86  55586.25
477.6  1.00  571.98  57198.25
479.1  1.00  579.11  57911.25
480.6  1.00  594.05  59404.50
482.1  1.00  608.77  60876.75
483.6  1.00  628.44  62843.50
485.1  1.00  654.73  65472.75
486.6  1.00  684.21  68420.50
488.0  1.00  717.11  71711.25
489.5  1.00  752.91  75291.25
491.0  1.00  791.74  79174.25
492.5  1.00  838.19  83818.75
494.0  1.00  892.06  89205.75
495.4  1.00  944.13  94413.00
496.9  1.00  1001.50  100150.00
498.4  1.00  1065.43  106543.00
499.9  1.00  1132.69  113269.25
501.4  1.00  1210.34  121033.50
502.8  1.00  1288.08  128807.50
504.3  1.00  1368.36  136836.00
505.8  1.00  1454.33  145432.75
507.2  1.00  1543.04  154303.50
508.7  1.00  1629.08  162907.75
510.2  1.00  1714.58  171458.25
511.6  1.00  1806.96  180696.25
513.1  1.00  1905.72  190571.75
514.6  1.00  2012.08  201207.75
516.0  1.00  2118.15  211814.50
517.5  1.00  2234.30  223429.75
519.0  1.00  2353.99  235398.50
520.5  1.00  2472.63  247263.00
521.9  1.00  2597.90  259790.25
523.4  1.00  2726.33  272633.25
524.8  1.00  2853.32  285331.75
526.3  1.00  2985.30  298529.75
527.8  1.00  3111.29  311129.00
529.2  1.00  3229.20  322919.50
530.7  1.00  3350.33  335032.50
532.1  1.00  3464.82  346482.00
533.6  1.00  3581.88  358187.50
535.0  1.00  3699.76  369975.50
536.5  1.00  3805.81  380580.50
538.0  1.00  3914.05  391404.75
539.4  1.00  4008.73  400872.75
540.9  1.00  4130.03  413003.25
542.3  1.00  4257.02  425701.75
543.8  1.00  4366.68  436667.75
545.2  1.00  4424.23  442422.75
546.6  1.00  4453.30  445329.75
548.1  1.00  4481.52  448151.50
549.5  1.00  4508.42  450842.00
551.0  1.00  4533.58  453358.00
552.4  1.00  4563.54  456354.25
553.9  1.00  4582.40  458240.00
555.3  1.00  4602.14  460213.75
556.8  1.00  4634.22  463421.50
558.2  1.00  4664.93  466492.75
559.6  1.00  4702.69  470268.50
561.1  1.00  4751.99  475198.75
562.5  1.00  4801.57  480157.00
564.0  1.00  4865.63  486563.25
565.4  1.00  4920.83  492082.50
566.8  1.00  4985.54  498553.50
568.3  1.00  5041.12  504112.00
569.7  1.00  5091.22  509121.75
571.1  1.00  5136.28  513628.25
572.6  1.00  5172.18  517217.50
574.0  1.00  5206.58  520657.50
575.4  1.00  5238.34  523834.00
576.9  1.00  5261.43  526143.00
578.3  1.00  5281.71  528170.75
579.7  1.00  5294.54  529454.00
581.1  1.00  5302.01  530200.75
582.6  1.00  5312.50  531250.25
584.0  1.00  5317.39  531738.50
585.4  1.00  5352.16  535215.75
586.8  1.00  5414.98  541497.75
588.3  1.00  5492.21  549221.25
589.7  1.00  5554.93  555492.75
591.1  1.00  5592.46  559245.75
592.5  1.00  5600.14  560014.25
594.0  1.00  5597.06  559706.25
595.4  1.00  5582.54  558254.25
596.8  1.00  5564.77  556477.25
598.2  1.00  5554.57  555457.25
599.6  1.00  5537.46  553745.75
601.0  1.00  5537.51  553750.75
602.4  1.00  5529.61  552960.50
603.9  1.00  5527.96  552796.25
605.3  1.00  5521.61  552160.50
606.7  1.00  5506.38  550638.00
608.1  1.00  5507.06  550705.50
609.5  1.00  5501.58  550158.00
610.9  1.00  5502.45  550244.75
612.3  1.00  5494.27  549426.75
613.7  1.00  5499.08  549908.25
615.1  1.00  5476.41  547641.25
616.5  1.00  5460.05  546005.00
617.9  1.00  5476.71  547670.75
619.3  1.00  5497.13  549712.50
620.7  1.00  5539.61  553961.00
622.1  1.00  5632.22  563222.00
623.5  1.00  5764.02  576401.50
624.9  1.00  5916.75  591675.25
626.3  1.00  6006.86  600686.25
627.7  1.00  5920.54  592054.25
629.1  1.00  5796.08  579607.50
630.5  1.00  5694.25  569425.25
631.9  1.00  5630.98  563098.00
633.3  1.00  5573.50  557349.50
634.7  1.00  5539.01  553900.50
636.1  1.00  5459.22  545922.25
637.5  1.00  5364.93  536493.25
638.9  1.00  5275.25  527525.25
640.2  1.00  5191.42  519141.50
641.6  1.00  5113.37  511336.75
643.0  1.00  5025.97  502596.75
644.4  1.00  4947.11  494711.25
645.8  1.00  4867.05  486704.50
647.2  1.00  4842.69  484268.50
648.5  1.00  4826.52  482651.50
649.9  1.00  4790.90  479089.50
651.3  1.00  4770.03  477003.00
652.7  1.00  4736.12  473611.50
654.1  1.00  4579.54  457953.50
655.5  1.00  4382.24  438223.75
656.8  1.00  4186.28  418627.50
658.2  1.00  4047.14  404713.75
659.6  1.00  3935.27  393526.75
660.9  1.00  3819.76  381976.00
662.3  1.00  3702.28  370227.75
663.7  1.00  3580.92  358092.00
665.0  1.00  3467.36  346736.25
666.4  1.00  3363.27  336326.50
667.8  1.00  3279.78  327978.00
669.1  1.00  3203.90  320390.25
670.5  1.00  3150.97  315096.75
671.9  1.00  3111.82  311181.50
673.2  1.00  3094.29  309429.00
674.6  1.00  3088.87  308887.00
676.0  1.00  3107.10  310709.50
677.3  1.00  3149.62  314962.25
678.7  1.00  3220.01  322001.25
680.0  1.00  3338.65  333864.75
681.4  1.00  3508.31  350830.50
682.8  1.00  3732.59  373259.25
684.1  1.00  4032.76  403275.50
685.5  1.00  4401.14  440114.00
686.8  1.00  4840.79  484078.75
688.2  1.00  5341.34  534133.75
689.5  1.00  5873.91  587391.25
690.9  1.00  6440.41  644040.75
692.2  1.00  7026.78  702678.00
693.6  1.00  7634.14  763413.75
694.9  1.00  8223.19  822318.75
696.2  1.00  8817.95  881794.50
697.6  1.00  9381.75  938175.00
698.9  1.00  9922.18  992217.50
700.3  1.00  10423.68  1042368.00
701.6  1.00  10891.35  1089134.50
703.0  1.00  11321.84  1132184.25
704.3  1.00  11703.34  1170333.50
705.6  1.00  12049.17  1204917.25
707.0  1.00  12371.08  1237107.75
708.3  1.00  12646.31  1264631.00
709.6  1.00  12893.14  1289314.00
711.0  1.00  13102.39  1310239.25
712.3  1.00  13282.75  1328275.00
713.6  1.00  13459.91  1345990.75
714.9  1.00  13619.80  1361980.00
716.3  1.00  13775.07  1377506.50
717.6  1.00  13934.50  1393449.50
718.9  1.00  14046.77  1404676.50
720.2  1.00  14120.21  1412021.00
721.6  1.00  14179.18  1417917.75
722.9  1.00  14221.83  1422182.50
724.2  1.00  14230.45  1423044.50
725.5  1.00  14253.63  1425363.25
726.8  1.00  14266.17  1426617.00
728.1  1.00  14294.39  1429438.50
729.5  1.00  14309.43  1430942.75
730.8  1.00  14325.89  1432588.75
732.1  1.00  14325.60  1432560.00
733.4  1.00  14338.51  1433851.00
734.7  1.00  14342.51  1434250.50
736.0  1.00  14375.28  1437527.50
737.3  1.00  14396.41  1439640.75
738.6  1.00  14457.16  1445715.50
739.9  1.00  14547.58  1454757.75
741.2  1.00  14624.61  1462461.00
742.5  1.00  14760.32  1476032.00
743.8  1.00  14964.19  1496418.50
745.1  1.00  15254.62  1525462.25
746.4  1.00  15596.31  1559630.75
747.7  1.00  15942.48  1594247.75
749.0  1.00  16260.14  1626014.25
750.3  1.00  16431.74  1643174.00
751.6  1.00  16423.13  1642313.25
752.9  1.00  16307.71  1630771.00
754.2  1.00  16167.59  1616758.50
755.4  1.00  16043.12  1604312.25
756.7  1.00  16015.93  1601592.75
758.0  1.00  16064.90  1606489.75
759.3  1.00  16205.86  1620585.75
760.6  1.00  16375.44  1637543.75
761.9  1.00  16538.65  1653865.25
763.1  1.00  16644.45  1664444.75
764.4  1.00  16767.33  1676733.00
765.7  1.00  16857.10  1685710.00
767.0  1.00  16939.84  1693984.25
768.2  1.00  17020.75  1702075.00
769.5  1.00  17087.84  1708784.00
770.8  1.00  17182.66  1718265.75
772.0  1.00  17223.38  1722338.00
773.3  1.00  17277.76  1727776.00
774.6  1.00  17334.20  1733420.00
775.8  1.00  17370.03  1737003.25
777.1  1.00  17402.52  1740252.25
778.4  1.00  17403.37  1740336.50
779.6  1.00  17415.80  1741579.75
780.9  1.00  17415.20  1741520.00
782.1  1.00  17372.88  1737288.00
783.4  1.00  17390.46  1739046.25
784.6  1.00  17421.74  1742174.00
785.9  1.00  17558.13  1755812.50
787.1  1.00  17796.71  1779670.50
788.4  1.00  17942.51  1794250.75
789.6  1.00  17891.30  1789129.75
790.9  1.00  17732.51  1773250.50
792.1  1.00  17586.55  1758654.50
793.4  1.00  17411.15  1741115.25
794.6  1.00  17280.52  1728052.00
795.8  1.00  17184.73  1718472.50
797.1  1.00  17083.05  1708305.00
798.3  1.00  17023.34  1702334.25
799.5  1.00  16979.73  1697972.75
800.8  1.00  16939.27  1693927.00
802.0  1.00  16887.63  1688762.50
803.2  1.00  16825.70  1682570.00
804.5  1.00  16774.41  1677440.50
805.7  1.00  16715.61  1671561.00
806.9  1.00  16654.72  1665471.50
808.1  1.00  16609.70  1660969.75
809.4  1.00  16567.32  1656732.25
810.6  1.00  16531.52  1653151.50
811.8  1.00  16530.96  1653096.00
813.0  1.00  16537.24  1653724.00
814.2  1.00  16562.49  1656249.00
815.4  1.00  16592.18  1659218.25
816.6  1.00  16601.62  1660162.25
817.9  1.00  16600.86  1660085.75
819.1  1.00  16571.80  1657179.50
820.3  1.00  16507.15  1650715.25
821.5  1.00  16466.13  1646612.75
822.7  1.00  16424.97  1642497.00
823.9  1.00  16403.02  1640301.50
825.1  1.00  16375.23  1637522.75
826.3  1.00  16351.64  1635163.75
827.5  1.00  16331.44  1633143.50
828.7  1.00  16300.63  1630063.25
829.9  1.00  16268.50  1626850.00
831.0  1.00  16266.30  1626630.00
832.2  1.00  16261.50  1626149.75
833.4  1.00  16261.42  1626141.75
834.6  1.00  16276.41  1627640.75
835.8  1.00  16287.55  1628754.75
837.0  1.00  16321.06  1632105.75
838.1  1.00  16373.72  1637372.25
839.3  1.00  16398.75  1639875.00
840.5  1.00  16455.85  1645584.50
841.7  1.00  16507.48  1650747.50
842.9  1.00  16578.96  1657896.00
844.0  1.00  16629.52  1662951.50
845.2  1.00  16703.08  1670307.75
846.4  1.00  16748.77  1674876.75
847.5  1.00  16831.19  1683118.50
848.7  1.00  16879.46  1687946.25
849.9  1.00  16940.80  1694079.75
851.0  1.00  16948.72  1694871.50
852.2  1.00  16966.15  1696614.50
853.3  1.00  16953.95  1695395.25
854.5  1.00  16936.84  1693684.25
855.6  1.00  16936.46  1693646.00
856.8  1.00  16943.46  1694346.25
857.9  1.00  16928.15  1692815.25
859.1  1.00  16983.66  1698366.00
860.2  1.00  16982.38  1698237.50
861.4  1.00  16994.86  1699485.75
862.5  1.00  17010.99  1701099.00
863.7  1.00  17036.44  1703644.25
864.8  1.00  17053.93  1705392.50
865.9  1.00  17026.65  1702664.50
867.1  1.00  17027.68  1702767.75
868.2  1.00  17034.32  1703432.00
869.3  1.00  17012.43  1701242.50
870.5  1.00  16985.04  1698504.00
871.6  1.00  16984.00  1698400.00
872.7  1.00  16990.93  1699093.00
873.9  1.00  16978.41  1697841.00
875.0  1.00  16947.44  1694744.25
876.1  1.00  16947.04  1694704.00
877.2  1.00  16926.03  1692603.25
878.3  1.00  16894.56  1689456.25
879.4  1.00  16881.97  1688196.50
880.5  1.00  16869.67  1686967.25
881.7  1.00  16836.63  1683662.50
882.8  1.00  16819.93  1681992.50
883.9  1.00  16788.13  1678812.75
885.0  1.00  16727.33  1672732.50
886.1  1.00  16668.30  1666830.00
887.2  1.00  16577.98  1657797.75
888.3  1.00  16498.54  1649853.75
889.4  1.00  16435.74  1643573.50
890.5  1.00  16395.41  1639540.50
891.6  1.00  16338.85  1633884.50
892.7  1.00  16304.50  1630449.75
893.8  1.00  16293.95  1629394.75
894.9  1.00  16266.01  1626600.75
896.0  1.00  16231.33  1623132.75
897.0  1.00  16227.04  1622704.00
898.1  1.00  16195.55  1619554.75
899.2  1.00  16155.40  1615540.00
900.3  1.00  16106.67  1610666.50
901.4  1.00  16064.46  1606446.00
902.4  1.00  16043.13  1604312.50
903.5  1.00  15971.65  1597164.75
904.6  1.00  15949.10  1594909.75
905.7  1.00  15908.51  1590851.00
906.7  1.00  15886.19  1588618.75
907.8  1.00  15877.59  1587758.75
908.9  1.00  15816.21  1581620.50
909.9  1.00  15753.75  1575375.00
911.0  1.00  15714.56  1571455.75
912.1  1.00  15637.65  1563765.00
913.1  1.00  15567.92  1556791.50
914.2  1.00  15505.76  1550576.25
915.2  1.00  15467.52  1546751.75
916.3  1.00  15396.60  1539660.00
917.3  1.00  15324.48  1532448.25
918.4  1.00  15242.15  1524215.00
919.4  1.00  15176.55  1517655.00
920.5  1.00  15101.43  1510142.50
921.5  1.00  15032.76  1503276.00
922.6  1.00  14931.93  1493192.50
923.6  1.00  14868.64  1486863.50
924.7  1.00  14801.68  1480167.50
925.7  1.00  14706.62  1470661.50
926.7  1.00  14636.17  1463617.25
927.8  1.00  14544.67  1454467.25
928.8  1.00  14495.53  1449552.50
929.9  1.00  14415.01  1441500.75
930.9  1.00  14406.60  1440660.25
931.9  1.00  14383.33  1438333.25
932.9  1.00  14374.28  1437428.00
934.0  1.00  14278.95  1427894.50
935.0  1.00  14199.09  1419909.00
936.0  1.00  14109.77  1410976.50
937.0  1.00  13981.38  1398138.25
938.1  1.00  13886.06  1388606.25
939.1  1.00  13773.26  1377325.75
940.1  1.00  13679.35  1367935.25
941.1  1.00  13658.24  1365823.75
942.1  1.00  13631.02  1363102.25
943.1  1.00  13605.79  1360578.50
944.1  1.00  13542.81  1354280.50
945.2  1.00  13435.34  1343533.75
946.2  1.00  13336.30  1333630.00
947.2  1.00  13243.93  1324392.50
948.2  1.00  13154.22  1315422.25
949.2  1.00  13052.82  1305281.50
950.2  1.00  12937.24  1293724.00
951.2  1.00  12820.58  1282058.25
952.2  1.00  12679.60  1267960.25
953.2  1.00  12591.56  1259156.00
954.2  1.00  12492.65  1249265.25
955.2  1.00  12415.97  1241597.25
956.2  1.00  12270.39  1227038.75
957.2  1.00  12173.31  1217331.25
958.2  1.00  12116.47  1211647.25
959.2  1.00  12044.61  1204461.00
960.1  1.00  11985.49  1198548.50
961.1  1.00  11950.25  1195024.75
962.1  1.00  11900.54  1190053.50
963.1  1.00  11855.80  1185580.25
964.1  1.00  11809.79  1180978.50
965.1  1.00  11824.09  1182409.25
966.1  1.00  11775.96  1177596.00
967.0  1.00  11753.63  1175363.00
968.0  1.00  11742.86  1174286.00
969.0  1.00  11686.54  1168654.00
970.0  1.00  11674.15  1167414.75
971.0  1.00  11656.81  1165680.75
971.9  1.00  11641.07  1164106.50
972.9  1.00  11585.63  1158563.25
973.9  1.00  11538.35  1153834.50
974.9  1.00  11475.94  1147594.00
975.8  1.00  11398.41  1139841.25
976.8  1.00  11339.06  1133905.50
977.8  1.00  11312.60  1131260.00
978.8  1.00  11212.67  1121266.50
979.7  1.00  11125.68  1112567.75
980.7  1.00  11002.98  1100297.50
981.7  1.00  10921.55  1092154.75
982.6  1.00  10912.67  1091267.25
983.6  1.00  10767.74  1076773.75
984.6  1.00  10535.87  1053587.25
985.5  1.00  10238.37  1023836.50
986.5  1.00  9920.15  992015.00
987.5  1.00  9697.10  969709.75
988.4  1.00  9037.49  903749.00
989.4  1.00  8501.44  850143.50
990.4  1.00  7780.20  778020.25
991.3  1.00  6799.86  679985.75
992.3  1.00  5732.03  573203.25
993.2  1.00  4981.57  498157.00
994.2  1.00  3769.89  376989.00
995.2  1.00  2741.77  274177.00
996.1  1.00  1650.42  165041.50
997.1  1.00  684.00  68400.00
998.0  1.00  -274.08  -27408.00
999.0  1.00  -614.27  -61426.50
1000.0  1.00  -1162.55  -116254.50
1000.9  1.00  -2439.64  -243963.75
1001.9  1.00  -3284.03  -328402.50
1002.8  1.00  -3512.40  -351239.75
1003.8  1.00  -4844.18  -484417.75
1004.8  1.00  -4746.14  -474614.25
961.5  1.00  14647.17  1464717.00
965.5  1.00  14713.56  1471355.75
969.5  1.00  14596.80  1459679.50
973.4  1.00  14402.42  1440242.00
977.4  1.00  14161.07  1416107.25
981.4  1.00  13975.20  1397519.50
985.3  1.00  13859.39  1385938.50
989.3  1.00  13815.69  1381568.50
993.3  1.00  13807.72  1380771.75
997.2  1.00  13798.31  1379831.00
1001.2  1.00  13866.13  1386612.50
1005.2  1.00  14028.07  1402807.25
1009.1  1.00  14266.15  1426615.00
1013.1  1.00  14529.76  1452976.25
1017.1  1.00  14782.02  1478201.75
1021.0  1.00  14974.90  1497489.75
1025.0  1.00  15162.12  1516211.75
1029.0  1.00  15329.87  1532986.75
1032.9  1.00  15502.31  1550230.50
1036.9  1.00  15724.63  1572463.25
1040.9  1.00  15988.49  1598848.50
1044.8  1.00  16261.72  1626171.50
1048.8  1.00  16493.27  1649326.75
1052.7  1.00  16686.38  1668637.50
1056.7  1.00  16822.25  1682224.50
1060.7  1.00  16928.08  1692807.75
1064.6  1.00  17005.50  1700549.75
1068.6  1.00  17011.64  1701164.00
1072.5  1.00  16989.53  1698953.00
1076.5  1.00  16942.75  1694274.75
1080.4  1.00  16874.64  1687464.25
1084.4  1.00  16809.01  1680900.75
1088.3  1.00  16720.72  1672072.25
1092.3  1.00  16563.03  1656303.25
1096.2  1.00  16384.98  1638497.75
1100.2  1.00  16229.45  1622945.25
1104.1  1.00  16024.94  1602494.00
1108.1  1.00  15835.54  1583554.25
1112.0  1.00  15616.50  1561650.00
1116.0  1.00  15335.63  1533563.00
1119.9  1.00  15017.77  1501776.75
1123.9  1.00  14688.03  1468802.75
1127.8  1.00  14210.88  1421088.00
1131.8  1.00  13605.51  1360551.00
1135.7  1.00  12912.65  1291264.75
1139.6  1.00  12180.49  1218048.50
1143.6  1.00  11507.47  1150747.25
1147.5  1.00  10959.04  1095904.00
1151.4  1.00  10527.18  1052718.00
1155.4  1.00  10264.12  1026411.75
1159.3  1.00  10104.45  1010444.50
1163.2  1.00  9965.50  996549.50
1167.2  1.00  9896.96  989695.50
1171.1  1.00  9844.85  984485.00
1175.0  1.00  9786.43  978642.50
1179.0  1.00  9736.16  973615.75
1182.9  1.00  9713.04  971304.00
1186.8  1.00  9676.98  967697.75
1190.7  1.00  9596.25  959624.75
1194.7  1.00  9523.50  952350.00
1198.6  1.00  9480.24  948024.25
1202.5  1.00  9459.64  945964.25
1206.4  1.00  9464.82  946481.50
1210.3  1.00  9483.65  948365.25
1214.2  1.00  9507.87  950786.50
1218.2  1.00  9531.27  953127.00
1222.1  1.00  9571.19  957118.75
1226.0  1.00  9619.93  961993.00
1229.9  1.00  9660.84  966084.00
1233.8  1.00  9689.66  968966.25
1237.7  1.00  9727.07  972707.25
1241.6  1.00  9756.80  975680.25
1245.5  1.00  9766.14  976614.00
1249.4  1.00  9777.18  977718.00
1253.3  1.00  9786.57  978656.50
1257.2  1.00  9800.19  980019.00
1261.1  1.00  9795.58  979557.50
1265.0  1.00  9767.96  976796.00
1268.9  1.00  9710.85  971084.75
1272.8  1.00  9699.98  969997.50
1276.7  1.00  9703.44  970343.75
1280.6  1.00  9662.33  966232.75
1284.5  1.00  9574.77  957477.25
1288.4  1.00  9476.88  947688.25
1292.3  1.00  9341.06  934106.25
1296.2  1.00  9187.57  918756.75
1300.1  1.00  9005.44  900544.25
1303.9  1.00  8786.00  878599.50
1307.8  1.00  8554.96  855496.25
1311.7  1.00  8315.81  831581.25
1315.6  1.00  8065.45  806544.50
1319.5  1.00  7801.70  780170.00
1323.3  1.00  7533.07  753307.25
1327.2  1.00  7265.44  726543.50
1331.1  1.00  7009.56  700955.50
1335.0  1.00  6753.39  675338.50
1338.8  1.00  6521.20  652120.25
1342.7  1.00  6308.44  630843.75
1346.5  1.00  6079.09  607909.25
1350.4  1.00  5874.46  587445.75
1354.3  1.00  5664.53  566452.75
1358.1  1.00  5461.39  546139.00
1362.0  1.00  5287.10  528710.00
1365.8  1.00  5132.87  513286.75
1369.7  1.00  4972.42  497242.25
1373.5  1.00  4733.09  473309.00
1377.4  1.00  4426.17  442616.50
1381.2  1.00  4092.06  409206.00
1385.1  1.00  3771.44  377144.00
1389.0  1.00  3446.89  344688.75
1392.8  1.00  3124.03  312403.25
1396.6  1.00  2844.07  284407.25
1400.5  1.00  2602.18  260218.25
1404.3  1.00  2412.90  241289.50
1408.2  1.00  2274.37  227437.00
1412.0  1.00  2161.12  216111.50
1415.8  1.00  2079.67  207967.00
1419.6  1.00  2016.09  201609.25
1423.5  1.00  1964.66  196466.25
1427.3  1.00  1927.68  192768.25
1431.1  1.00  1897.78  189778.25
1434.9  1.00  1870.85  187085.25
1438.8  1.00  1856.05  185605.25
1442.6  1.00  1848.13  184813.25
1446.4  1.00  1834.78  183478.25
1450.2  1.00  1827.48  182748.25
1454.0  1.00  1820.58  182058.00
1457.8  1.00  1821.24  182124.25
1461.6  1.00  1831.28  183127.75
1465.4  1.00  1838.68  183868.00
1469.2  1.00  1848.44  184844.00
1473.0  1.00  1870.56  187055.75
1476.8  1.00  1905.55  190554.75
1480.7  1.00  1943.42  194342.00
1484.4  1.00  1985.88  198588.00
1488.2  1.00  2038.89  203889.00
1492.0  1.00  2094.36  209435.50
1495.8  1.00  2145.33  214533.00
1499.6  1.00  2180.43  218043.00
1503.4  1.00  2183.90  218389.50
1507.2  1.00  2169.29  216929.25
1510.9  1.00  2177.23  217723.25
1514.7  1.00  2204.65  220465.25
1518.5  1.00  2251.16  225115.75
1522.3  1.00  2303.86  230385.50
1526.0  1.00  2352.43  235242.75
1529.8  1.00  2402.07  240206.50
1533.6  1.00  2446.76  244676.25
1537.3  1.00  2489.84  248983.75
1541.1  1.00  2532.16  253216.00
1544.8  1.00  2571.00  257100.00
1548.6  1.00  2608.94  260894.00
1552.4  1.00  2647.83  264782.50
1556.1  1.00  2681.73  268172.75
1559.9  1.00  2708.21  270821.25
1563.6  1.00  2731.82  273182.25
1567.3  1.00  2770.61  277060.75
1571.1  1.00  2810.08  281008.00
1574.8  1.00  2845.90  284590.25
1578.6  1.00  2874.56  287455.75
1582.3  1.00  2897.26  289726.00
1586.0  1.00  2917.73  291773.00
1589.8  1.00  2933.52  293351.50
1593.5  1.00  2949.66  294965.75
1597.2  1.00  2967.64  296763.50
1600.9  1.00  2982.72  298272.25
1604.7  1.00  2997.14  299714.00
1608.4  1.00  3015.92  301592.00
1612.1  1.00  3028.98  302898.25
1615.8  1.00  3042.39  304238.75
1619.5  1.00  3063.71  306371.25
1623.2  1.00  3077.85  307785.25
1626.9  1.00  3086.84  308684.00
1630.6  1.00  3095.79  309578.50
1634.3  1.00  3101.09  310108.50
1638.0  1.00  3102.36  310235.75
1641.7  1.00  3097.98  309797.75
1645.4  1.00  3085.27  308526.50
1649.1  1.00  3074.47  307446.50
1652.8  1.00  3064.78  306478.25
1656.4  1.00  3046.87  304687.25
1660.1  1.00  3031.63  303162.75
1663.8  1.00  3017.24  301724.00
1667.5  1.00  3005.49  300548.50
1671.1  1.00  2990.08  299008.00
1674.8  1.00  2964.66  296466.00
1678.5  1.00  2953.97  295397.00
1682.1  1.00  2946.15  294614.75
1685.8  1.00  2937.72  293772.00
1689.5  1.00  2917.72  291771.50
1693.1  1.00  2887.85  288784.50
1696.8  1.00  2860.69  286069.00
1700.4  1.00  2825.65  282564.75
1704.0  1.00  2789.67  278967.00
1707.7  1.00  2743.22  274321.50
1711.3  1.00  2688.43  268842.50
1715.0  1.00  2642.06  264205.75
1718.6  1.00  2599.66  259966.25
1722.2  1.00  2559.10  255910.25
1725.9  1.00  2516.76  251676.00
1729.5  1.00  2480.33  248032.50
1733.1  1.00  2455.98  245597.75
1736.7  1.00  2435.59  243558.75
1740.3  1.00  2407.58  240757.50
1744.0  1.00  2379.23  237922.75
1747.5  1.00  2344.38  234437.50
1751.2  1.00  2300.61  230061.00
1754.8  1.00  2260.98  226098.25
1758.4  1.00  2221.89  222188.75
1762.0  1.00  2184.14  218414.25
1765.5  1.00  2161.45  216144.75
1769.1  1.00  2145.60  214560.00
1772.7  1.00  2125.64  212564.00
1776.3  1.00  2107.14  210714.25
1779.9  1.00  2082.98  208297.50
1783.5  1.00  2067.70  206770.00
1787.0  1.00  2048.56  204855.50
1790.6  1.00  2035.17  203516.50
1794.2  1.00  2027.83  202783.00
1797.8  1.00  2018.80  201880.00
1801.3  1.00  2009.95  200995.25
1804.9  1.00  2000.91  200090.75
1808.4  1.00  1996.41  199641.00
1812.0  1.00  1986.03  198602.50
1815.5  1.00  1972.41  197241.00
1819.1  1.00  1959.56  195956.00
1822.6  1.00  1947.33  194732.75
1826.2  1.00  1933.36  193335.50
1829.7  1.00  1914.53  191452.75
1833.2  1.00  1890.01  189001.25
1836.8  1.00  1865.62  186561.75
1840.3  1.00  1846.17  184617.25
1843.8  1.00  1833.34  183333.50
1847.3  1.00  1820.25  182024.75
1850.8  1.00  1806.34  180633.75
1854.3  1.00  1777.84  177784.00
1857.8  1.00  1727.70  172770.00
1861.3  1.00  1663.76  166376.00
1864.8  1.00  1588.15  158815.00
1868.3  1.00  1476.35  147634.75
1871.8  1.00  1351.68  135168.00
1875.3  1.00  1255.01  125500.75
1878.8  1.00  1167.83  116783.25
1882.3  1.00  1084.87  108487.00
1885.8  1.00  1001.87  100186.75
1889.3  1.00  923.77  92376.50
1892.7  1.00  878.76  87875.75
1896.2  1.00  827.23  82723.25
1899.7  1.00  791.85  79184.75
1903.1  1.00  802.04  80203.50
1906.6  1.00  850.49  85049.00
1910.0  1.00  938.16  93816.00
1913.5  1.00  1030.12  103011.75
1917.0  1.00  1246.22  124622.00
1920.4  1.00  1409.87  140986.50
1923.8  1.00  1449.40  144939.50
1871.2  1.00  0.00  0.00
1873.9  1.00  483.23  48322.50
1876.7  1.00  1347.98  134797.50
1879.5  1.00  70.94  7093.75
1882.3  1.00  270.65  27065.00
1885.1  1.00  905.10  90510.00
1887.8  1.00  61.85  6185.00
1890.6  1.00  233.90  23390.00
1893.4  1.00  825.00  82500.00
1896.2  1.00  51.58  5157.50
1898.9  1.00  192.70  19270.00
1901.7  1.00  661.31  66131.25
1904.5  1.00  0.00  0.00
1907.2  1.00  285.00  28500.00
1910.0  1.00  616.08  61607.50
1912.7  1.00  60.05  6005.00
1915.5  1.00  310.48  31047.50
1918.2  1.00  617.26  61726.25
1921.0  1.00  103.15  10315.00
1923.7  1.00  300.15  30015.00
1926.5  1.00  561.78  56177.50
1929.2  1.00  120.25  12025.00
1932.0  1.00  260.70  26070.00
1934.7  1.00  515.90  51590.00
1937.4  1.00  139.58  13957.50
1940.2  1.00  322.70  32270.00
1942.9  1.00  548.10  54810.00
1945.6  1.00  113.25  11325.00
1948.3  1.00  315.88  31587.50
1951.1  1.00  586.95  58695.00
1953.8  1.00  202.50  20250.00
1956.5  1.00  314.48  31447.50
1959.2  1.00  560.63  56062.50
1961.9  1.00  178.80  17880.00
1964.6  1.00  312.38  31237.50
1967.3  1.00  578.50  57850.00
1970.0  1.00  222.00  22200.00
1972.8  1.00  330.94  33093.75
1975.5  1.00  526.80  52680.00
1978.2  1.00  175.20  17520.00
1980.9  1.00  327.94  32793.75
1983.5  1.00  588.94  58893.75
1986.2  1.00  218.25  21825.00
1988.9  1.00  371.03  37102.50
1991.6  1.00  651.75  65175.00
1994.3  1.00  216.63  21662.50
1997.0  1.00  346.00  34600.00
1999.7  1.00  624.59  62458.75
2002.3  1.00  280.48  28047.50
2005.0  1.00  431.50  43150.00
2007.7  1.00  666.50  66650.00
2010.4  1.00  278.36  27836.25
2013.0  1.00  426.75  42675.00
2015.7  1.00  682.00  68200.00
2018.4  1.00  297.85  29785.00
2021.0  1.00  403.75  40375.00
2023.7  1.00  636.00  63600.00
2026.4  1.00  274.63  27462.50
2029.0  1.00  463.93  46392.50
2031.7  1.00  697.13  69712.50
2034.3  1.00  295.75  29575.00
2037.0  1.00  422.25  42225.00
2039.6  1.00  675.20  67520.00
2042.3  1.00  337.00  33700.00
2044.9  1.00  441.79  44178.75
2047.5  1.00  673.20  67320.00
2050.2  1.00  315.00  31500.00
2052.8  1.00  441.00  44100.00
2055.4  1.00  672.40  67240.00
2058.1  1.00  357.00  35700.00
2060.7  1.00  503.10  50310.00
2063.3  1.00  689.70  68970.00
2065.9  1.00  335.00  33500.00
2068.6  1.00  460.63  46062.50
2071.2  1.00  732.38  73237.50
2073.8  1.00  356.79  35678.75
2076.4  1.00  484.15  48415.00
2079.0  1.00  674.40  67440.00
2081.6  1.00  337.60  33760.00
2084.2  1.00  507.90  50790.00
2086.8  1.00  742.44  74243.75
2089.4  1.00  404.23  40422.50
2092.1  1.00  573.75  57375.00
2094.7  1.00  762.75  76275.00
2097.2  1.00  340.00  34000.00
2099.8  1.00  469.70  46970.00
2102.4  1.00  725.05  72505.00
2105.0  1.00  384.75  38475.00
2107.6  1.00  534.06  53406.25
2110.2  1.00  745.94  74593.75
2112.8  1.00  386.55  38655.00
2115.3  1.00  519.60  51960.00
2117.9  1.00  739.93  73992.50
2120.5  1.00  349.80  34980.00
2123.1  1.00  526.50  52650.00
2125.6  1.00  768.69  76868.75
2128.2  1.00  417.05  41705.00
2130.8  1.00  504.56  50456.25
2133.3  1.00  770.00  77000.00
2135.9  1.00  397.13  39712.50
2138.4  1.00  464.10  46410.00
2141.0  1.00  727.24  72723.75
2143.6  1.00  395.78  39577.50
2146.1  1.00  528.90  52890.00
2148.7  1.00  726.83  72682.50
2151.2  1.00  352.00  35200.00
2153.8  1.00  485.65  48565.00
2156.3  1.00  797.40  79740.00
2158.8  1.00  354.40  35440.00
2161.4  1.00  486.48  48647.50
2163.9  1.00  773.94  77393.75
2166.4  1.00  354.80  35480.00
2169.0  1.00  465.68  46567.50
2171.5  1.00  776.13  77612.50
2174.0  1.00  401.63  40162.50
2176.5  1.00  515.78  51577.50
2179.1  1.00  745.39  74538.75
2181.6  1.00  365.00  36500.00
2184.1  1.00  531.30  53130.00
2186.6  1.00  823.81  82381.25
2189.1  1.00  385.20  38520.00
2191.6  1.00  490.00  49000.00
2194.1  1.00  747.38  74737.50
2196.6  1.00  305.70  30570.00
2199.2  1.00  470.93  47092.50
2201.7  1.00  779.01  77901.25
2204.1  1.00  302.36  30236.25
2206.6  1.00  447.60  44760.00
2209.1  1.00  709.69  70968.75
2211.6  1.00  228.40  22840.00
2214.1  1.00  513.23  51322.50
2216.6  1.00  826.14  82613.75
2219.1  1.00  313.36  31336.25
2221.6  1.00  399.70  39970.00
2224.0  1.00  742.95  74295.00
2226.5  1.00  228.30  22830.00
2229.0  1.00  399.70  39970.00
2231.5  1.00  746.85  74685.00
2233.9  1.00  230.90  23090.00
2236.4  1.00  405.30  40530.00
2238.9  1.00  697.50  69750.00
2241.3  1.00  204.05  20405.00
2243.8  1.00  437.25  43725.00
2246.2  1.00  668.73  66872.50
2248.7  1.00  144.63  14462.50
2251.2  1.00  345.90  34590.00
2253.6  1.00  691.20  69120.00
2256.1  1.00  201.60  20160.00
2258.5  1.00  403.38  40337.50
2260.9  1.00  690.30  69030.00
2263.4  1.00  172.73  17272.50
2265.8  1.00  403.90  40390.00
2268.3  1.00  663.84  66383.75
2270.7  1.00  143.94  14393.75
2273.1  1.00  316.39  31638.75
2275.6  1.00  633.60  63360.00
2278.0  1.00  201.78  20177.50
2280.4  1.00  288.63  28862.50
2282.8  1.00  609.79  60978.75
2285.3  1.00  116.65  11665.00
2287.7  1.00  234.30  23430.00
2290.1  1.00  533.70  53370.00
2292.5  1.00  29.76  2976.25
2294.9  1.00  237.10  23710.00
2297.3  1.00  533.93  53392.50
2299.7  1.00  88.84  8883.75
2302.1  1.00  235.70  23570.00
2304.5  1.00  529.20  52920.00
2306.9  1.00  29.40  2940.00
2309.3  1.00  235.10  23510.00
2311.7  1.00  588.75  58875.00
2314.1  1.00  29.54  2953.75
2316.5  1.00  206.85  20685.00
2318.9  1.00  502.56  50256.25
2321.3  1.00  0.00  0.00
2323.7  1.00  149.75  14975.00
2326.1  1.00  544.05  54405.00
2328.4  1.00  30.51  3051.25
2330.8  1.00  153.38  15337.50
2333.2  1.00  525.09  52508.75
2335.6  1.00  31.14  3113.75
2337.9  1.00  187.80  18780.00
2340.3  1.00  535.29  53528.75
2342.7  1.00  0.00  0.00
2345.0  1.00  159.25  15925.00
2347.4  1.00  541.88  54187.50
2349.7  1.00  32.04  3203.75
2352.1  1.00  225.14  22513.75
2354.4  1.00  580.28  58027.50
2356.8  1.00  0.00  0.00
2359.2  1.00  162.50  16250.00
2361.5  1.00  458.15  45815.00
2363.8  1.00  0.00  0.00
2366.2  1.00  99.30  9930.00
2368.5  1.00  433.88  43387.50
2370.9  1.00  0.00  0.00
2373.2  1.00  101.18  10117.50
2375.5  1.00  407.25  40725.00
2377.9  1.00  0.00  0.00
2380.2  1.00  103.09  10308.75
2382.5  1.00  413.55  41355.00
2384.8  1.00  0.00  0.00
2387.2  1.00  105.49  10548.75
2389.5  1.00  389.54  38953.75
2391.8  1.00  0.00  0.00
2394.1  1.00  107.96  10796.25
2396.4  1.00  508.03  50802.50
2398.7  1.00  0.00  0.00
2401.0  1.00  37.09  3708.75
2403.3  1.00  410.85  41085.00
2405.6  1.00  0.00  0.00
2407.9  1.00  37.58  3757.50
2410.2  1.00  413.60  41360.00
2412.5  1.00  -38.11  -3811.25
2414.8  1.00  0.00  0.00
2417.1  1.00  425.84  42583.75
2419.4  1.00  -39.08  -3907.50
2421.7  1.00  39.43  3942.50
2424.0  1.00  435.88  43587.50
2426.2  1.00  0.00  0.00
2428.5  1.00  0.00  0.00
2430.8  1.00  490.50  49050.00
2433.1  1.00  0.00  0.00
2435.4  1.00  0.00  0.00
2437.6  1.00  377.66  37766.25
2439.9  1.00  0.00  0.00
2442.2  1.00  0.00  0.00
2444.4  1.00  344.60  34460.00
2446.7  1.00  -43.80  -4380.00
2448.9  1.00  0.00  0.00
2451.2  1.00  357.60  35760.00
2453.4  1.00  -45.20  -4520.00
2455.7  1.00  0.00  0.00
2457.9  1.00  228.94  22893.75
2460.2  1.00  -184.95  -18495.00
2462.4  1.00  0.00  0.00
2464.7  1.00  378.50  37850.00
2466.9  1.00  -144.45  -14445.00
2469.2  1.00  0.00  0.00
2471.4  1.00  344.66  34466.25
2473.6  1.00  -100.43  -10042.50
2475.9  1.00  0.00  0.00
2478.1  1.00  409.90  40990.00
2480.3  1.00  -156.64  -15663.75
2482.5  1.00  0.00  0.00
2484.8  1.00  382.29  38228.75
2487.0  1.00  -277.75  -27775.00
2489.2  1.00  0.00  0.00
2491.4  1.00  576.38  57637.50
2493.6  1.00  -176.36  -17636.25
2495.8  1.00  0.00  0.00
2498.0  1.00  364.80  36480.00
2500.2  1.00  -379.13  -37912.50
2502.4  1.00  0.00  0.00
2504.6  1.00  422.55  42255.00
2506.8  1.00  0.00  0.00
