/*** Spectra Vista SIG Data ***/
name= GB.sig
comm= SIG file reprocesed for matching/overlap;Averaged Ref/Tar of files: GD4B1,GD4B2,GD4B3,GD4B4
data=
346.4  1.00  -144.60  -14460.00
347.9  1.00  -138.68  -13868.00
349.5  1.00  -141.34  -14134.00
351.1  1.00  -139.15  -13915.00
352.6  1.00  -142.95  -14295.00
354.2  1.00  -143.34  -14334.00
355.7  1.00  -145.82  -14582.00
357.3  1.00  -151.53  -15153.00
358.8  1.00  -151.34  -15134.00
360.4  1.00  -154.42  -15442.00
361.9  1.00  -151.14  -15114.00
363.5  1.00  -149.58  -14958.00
365.1  1.00  -143.55  -14355.00
366.6  1.00  -141.55  -14155.00
368.2  1.00  -135.31  -13531.00
369.7  1.00  -133.54  -13354.00
371.3  1.00  -127.75  -12775.00
372.8  1.00  -133.13  -13313.00
374.4  1.00  -129.83  -12983.00
375.9  1.00  -123.46  -12346.00
377.4  1.00  -125.22  -12522.00
379.0  1.00  -115.52  -11552.00
380.5  1.00  -115.41  -11541.00
382.1  1.00  -101.65  -10165.00
383.6  1.00  -92.99  -9299.00
385.2  1.00  -84.98  -8498.00
386.7  1.00  -82.31  -8231.00
388.3  1.00  -77.72  -7772.00
389.8  1.00  -72.47  -7247.00
391.3  1.00  -70.74  -7074.00
392.9  1.00  -65.43  -6543.00
394.4  1.00  -69.44  -6944.00
395.9  1.00  -76.30  -7630.00
397.5  1.00  -73.00  -7300.00
399.0  1.00  -60.87  -6087.00
400.6  1.00  -40.47  -4047.00
402.1  1.00  -28.12  -2812.00
403.6  1.00  -14.63  -1463.00
405.1  1.00  -7.31  -731.00
406.7  1.00  3.36  336.00
408.2  1.00  14.70  1470.00
409.7  1.00  16.80  1680.00
411.3  1.00  18.82  1882.00
412.8  1.00  21.81  2181.00
414.3  1.00  22.76  2276.00
415.8  1.00  28.25  2825.00
417.4  1.00  36.69  3669.00
418.9  1.00  41.75  4175.00
420.4  1.00  46.36  4636.00
421.9  1.00  56.15  5615.00
423.5  1.00  64.92  6492.00
425.0  1.00  73.95  7395.00
426.5  1.00  83.85  8385.00
428.0  1.00  95.85  9585.00
429.5  1.00  107.44  10744.00
431.1  1.00  115.33  11533.00
432.6  1.00  125.54  12554.00
434.1  1.00  130.32  13032.00
435.6  1.00  139.51  13951.00
437.1  1.00  145.47  14547.00
438.6  1.00  152.48  15248.00
440.1  1.00  162.17  16217.00
441.6  1.00  173.42  17342.00
443.1  1.00  184.48  18448.00
444.7  1.00  194.40  19440.00
446.2  1.00  205.45  20545.00
447.7  1.00  220.93  22093.00
449.2  1.00  237.17  23717.00
450.7  1.00  259.58  25958.00
452.2  1.00  287.29  28729.00
453.7  1.00  305.64  30564.00
455.2  1.00  328.13  32813.00
456.7  1.00  348.31  34831.00
458.2  1.00  370.47  37047.00
459.7  1.00  387.98  38798.00
461.2  1.00  407.89  40789.00
462.7  1.00  422.08  42208.00
464.2  1.00  437.74  43774.00
465.7  1.00  451.54  45154.00
467.2  1.00  465.08  46508.00
468.7  1.00  477.80  47780.00
470.2  1.00  477.21  47721.00
471.7  1.00  475.95  47595.00
473.2  1.00  493.52  49352.00
474.6  1.00  529.17  52917.00
476.1  1.00  555.86  55586.00
477.6  1.00  571.98  57198.00
479.1  1.00  579.11  57911.00
480.6  1.00  594.05  59405.00
482.1  1.00  608.77  60877.00
483.6  1.00  628.44  62844.00
485.1  1.00  654.73  65473.00
486.6  1.00  684.21  68421.00
488.0  1.00  717.11  71711.00
489.5  1.00  752.91  75291.00
491.0  1.00  791.74  79174.00
492.5  1.00  838.19  83819.00
494.0  1.00  892.06  89206.00
495.4  1.00  944.13  94413.00
496.9  1.00  1001.50  100150.00
498.4  1.00  1065.43  106543.00
499.9  1.00  1132.69  113269.00
501.4  1.00  1210.34  121034.00
502.8  1.00  1288.08  128808.00
504.3  1.00  1368.36  136836.00
505.8  1.00  1454.33  145433.00
507.2  1.00  1543.04  154304.00
508.7  1.00  1629.08  162908.00
510.2  1.00  1714.58  171458.00
511.6  1.00  1806.96  180696.00
513.1  1.00  1905.72  190572.00
514.6  1.00  2012.08  201208.00
516.0  1.00  2118.15  211815.00
517.5  1.00  2234.30  223430.00
519.0  1.00  2353.99  235399.00
520.5  1.00  2472.63  247263.00
521.9  1.00  2597.90  259790.00
523.4  1.00  2726.33  272633.00
524.8  1.00  2853.32  285332.00
526.3  1.00  2985.30  298530.00
527.8  1.00  3111.29  311129.00
529.2  1.00  3229.20  322920.00
530.7  1.00  3350.33  335033.00
532.1  1.00  3464.82  346482.00
533.6  1.00  3581.88  358188.00
535.0  1.00  3699.76  369976.00
536.5  1.00  3805.81  380581.00
538.0  1.00  3914.05  391405.00
539.4  1.00  4008.73  400873.00
540.9  1.00  4130.03  413003.00
542.3  1.00  4257.02  425702.00
543.8  1.00  4366.68  436668.00
545.2  1.00  4424.23  442423.00
546.6  1.00  4453.30  445330.00
548.1  1.00  4481.52  448152.00
549.5  1.00  4508.42  450842.00
551.0  1.00  4533.58  453358.00
552.4  1.00  4563.54  456354.00
553.9  1.00  4582.40  458240.00
555.3  1.00  4602.14  460214.00
556.8  1.00  4634.22  463422.00
558.2  1.00  4664.93  466493.00
559.6  1.00  4702.69  470269.00
561.1  1.00  4751.99  475199.00
562.5  1.00  4801.57  480157.00
564.0  1.00  4865.63  486563.00
565.4  1.00  4920.83  492083.00
566.8  1.00  4985.54  498554.00
568.3  1.00  5041.12  504112.00
569.7  1.00  5091.22  509122.00
571.1  1.00  5136.28  513628.00
572.6  1.00  5172.18  517218.00
574.0  1.00  5206.58  520658.00
575.4  1.00  5238.34  523834.00
576.9  1.00  5261.43  526143.00
578.3  1.00  5281.71  528171.00
579.7  1.00  5294.54  529454.00
581.1  1.00  5302.01  530201.00
582.6  1.00  5312.50  531250.00
584.0  1.00  5317.39  531739.00
585.4  1.00  5352.16  535216.00
586.8  1.00  5414.98  541498.00
588.3  1.00  5492.21  549221.00
589.7  1.00  5554.93  555493.00
591.1  1.00  5592.46  559246.00
592.5  1.00  5600.14  560014.00
594.0  1.00  5597.06  559706.00
595.4  1.00  5582.54  558254.00
596.8  1.00  5564.77  556477.00
598.2  1.00  5554.57  555457.00
599.6  1.00  5537.46  553746.00
601.0  1.00  5537.51  553751.00
602.4  1.00  5529.61  552961.00
603.9  1.00  5527.96  552796.00
605.3  1.00  5521.61  552161.00
606.7  1.00  5506.38  550638.00
608.1  1.00  5507.06  550706.00
609.5  1.00  5501.58  550158.00
610.9  1.00  5502.45  550245.00
612.3  1.00  5494.27  549427.00
613.7  1.00  5499.08  549908.00
615.1  1.00  5476.41  547641.00
616.5  1.00  5460.05  546005.00
617.9  1.00  5476.71  547671.00
619.3  1.00  5497.13  549713.00
620.7  1.00  5539.61  553961.00
622.1  1.00  5632.22  563222.00
623.5  1.00  5764.02  576402.00
624.9  1.00  5916.75  591675.00
626.3  1.00  6006.86  600686.00
627.7  1.00  5920.54  592054.00
629.1  1.00  5796.08  579608.00
630.5  1.00  5694.25  569425.00
631.9  1.00  5630.98  563098.00
633.3  1.00  5573.50  557350.00
634.7  1.00  5539.01  553901.00
636.1  1.00  5459.22  545922.00
637.5  1.00  5364.93  536493.00
638.9  1.00  5275.25  527525.00
640.2  1.00  5191.42  519142.00
641.6  1.00  5113.37  511337.00
643.0  1.00  5025.97  502597.00
644.4  1.00  4947.11  494711.00
645.8  1.00  4867.05  486705.00
647.2  1.00  4842.69  484269.00
648.5  1.00  4826.52  482652.00
649.9  1.00  4790.90  479090.00
651.3  1.00  4770.03  477003.00
652.7  1.00  4736.12  473612.00
654.1  1.00  4579.54  457954.00
655.5  1.00  4382.24  438224.00
656.8  1.00  4186.28  418628.00
658.2  1.00  4047.14  404714.00
659.6  1.00  3935.27  393527.00
660.9  1.00  3819.76  381976.00
662.3  1.00  3702.28  370228.00
663.7  1.00  3580.92  358092.00
665.0  1.00  3467.36  346736.00
666.4  1.00  3363.27  336327.00
667.8  1.00  3279.78  327978.00
669.1  1.00  3203.90  320390.00
670.5  1.00  3150.97  315097.00
671.9  1.00  3111.82  311182.00
673.2  1.00  3094.29  309429.00
674.6  1.00  3088.87  308887.00
676.0  1.00  3107.10  310710.00
677.3  1.00  3149.62  314962.00
678.7  1.00  3220.01  322001.00
680.0  1.00  3338.65  333865.00
681.4  1.00  3508.31  350831.00
682.8  1.00  3732.59  373259.00
684.1  1.00  4032.76  403276.00
685.5  1.00  4401.14  440114.00
686.8  1.00  4840.79  484079.00
688.2  1.00  5341.34  534134.00
689.5  1.00  5873.91  587391.00
690.9  1.00  6440.41  644041.00
692.2  1.00  7026.78  702678.00
693.6  1.00  7634.14  763414.00
694.9  1.00  8223.19  822319.00
696.2  1.00  8817.95  881795.00
697.6  1.00  9381.75  938175.00
698.9  1.00  9922.18  992218.00
700.3  1.00  10423.68  1042368.00
701.6  1.00  10891.35  1089135.00
703.0  1.00  11321.84  1132184.00
704.3  1.00  11703.34  1170334.00
705.6  1.00  12049.17  1204917.00
707.0  1.00  12371.08  1237108.00
708.3  1.00  12646.31  1264631.00
709.6  1.00  12893.14  1289314.00
711.0  1.00  13102.39  1310239.00
712.3  1.00  13282.75  1328275.00
713.6  1.00  13459.91  1345991.00
714.9  1.00  13619.80  1361980.00
716.3  1.00  13775.07  1377507.00
717.6  1.00  13934.50  1393450.00
718.9  1.00  14046.77  1404677.00
720.2  1.00  14120.21  1412021.00
721.6  1.00  14179.18  1417918.00
722.9  1.00  14221.83  1422183.00
724.2  1.00  14230.45  1423045.00
725.5  1.00  14253.63  1425363.00
726.8  1.00  14266.17  1426617.00
728.1  1.00  14294.39  1429439.00
729.5  1.00  14309.43  1430943.00
730.8  1.00  14325.89  1432589.00
732.1  1.00  14325.60  1432560.00
733.4  1.00  14338.51  1433851.00
734.7  1.00  14342.51  1434251.00
736.0  1.00  14375.28  1437528.00
737.3  1.00  14396.41  1439641.00
738.6  1.00  14457.16  1445716.00
739.9  1.00  14547.58  1454758.00
741.2  1.00  14624.61  1462461.00
742.5  1.00  14760.32  1476032.00
743.8  1.00  14964.19  1496419.00
745.1  1.00  15254.62  1525462.00
746.4  1.00  15596.31  1559631.00
747.7  1.00  15942.48  1594248.00
749.0  1.00  16260.14  1626014.00
750.3  1.00  16431.74  1643174.00
751.6  1.00  16423.13  1642313.00
752.9  1.00  16307.71  1630771.00
754.2  1.00  16167.59  1616759.00
755.4  1.00  16043.12  1604312.00
756.7  1.00  16015.93  1601593.00
758.0  1.00  16064.90  1606490.00
759.3  1.00  16205.86  1620586.00
760.6  1.00  16375.44  1637544.00
761.9  1.00  16538.65  1653865.00
763.1  1.00  16644.45  1664445.00
764.4  1.00  16767.33  1676733.00
765.7  1.00  16857.10  1685710.00
767.0  1.00  16939.84  1693984.00
768.2  1.00  17020.75  1702075.00
769.5  1.00  17087.84  1708784.00
770.8  1.00  17182.66  1718266.00
772.0  1.00  17223.38  1722338.00
773.3  1.00  17277.76  1727776.00
774.6  1.00  17334.20  1733420.00
775.8  1.00  17370.03  1737003.00
777.1  1.00  17402.52  1740252.00
778.4  1.00  17403.37  1740337.00
779.6  1.00  17415.80  1741580.00
780.9  1.00  17415.20  1741520.00
782.1  1.00  17372.88  1737288.00
783.4  1.00  17390.46  1739046.00
784.6  1.00  17421.74  1742174.00
785.9  1.00  17558.13  1755813.00
787.1  1.00  17796.71  1779671.00
788.4  1.00  17942.51  1794251.00
789.6  1.00  17891.30  1789130.00
790.9  1.00  17732.51  1773251.00
792.1  1.00  17586.55  1758655.00
793.4  1.00  17411.15  1741115.00
794.6  1.00  17280.52  1728052.00
795.8  1.00  17184.73  1718473.00
797.1  1.00  17083.05  1708305.00
798.3  1.00  17023.34  1702334.00
799.5  1.00  16979.73  1697973.00
800.8  1.00  16939.27  1693927.00
802.0  1.00  16887.63  1688763.00
803.2  1.00  16825.70  1682570.00
804.5  1.00  16774.41  1677441.00
805.7  1.00  16715.61  1671561.00
806.9  1.00  16654.72  1665472.00
808.1  1.00  16609.70  1660970.00
809.4  1.00  16567.32  1656732.00
810.6  1.00  16531.52  1653152.00
811.8  1.00  16530.96  1653096.00
813.0  1.00  16537.24  1653724.00
814.2  1.00  16562.49  1656249.00
815.4  1.00  16592.18  1659218.00
816.6  1.00  16601.62  1660162.00
817.9  1.00  16600.86  1660086.00
819.1  1.00  16571.80  1657180.00
820.3  1.00  16507.15  1650715.00
821.5  1.00  16466.13  1646613.00
822.7  1.00  16424.97  1642497.00
823.9  1.00  16403.02  1640302.00
825.1  1.00  16375.23  1637523.00
826.3  1.00  16351.64  1635164.00
827.5  1.00  16331.44  1633144.00
828.7  1.00  16300.63  1630063.00
829.9  1.00  16268.50  1626850.00
831.0  1.00  16266.30  1626630.00
832.2  1.00  16261.50  1626150.00
833.4  1.00  16261.42  1626142.00
834.6  1.00  16276.41  1627641.00
835.8  1.00  16287.55  1628755.00
837.0  1.00  16321.06  1632106.00
838.1  1.00  16373.72  1637372.00
839.3  1.00  16398.75  1639875.00
840.5  1.00  16455.85  1645585.00
841.7  1.00  16507.48  1650748.00
842.9  1.00  16578.96  1657896.00
844.0  1.00  16629.52  1662952.00
845.2  1.00  16703.08  1670308.00
846.4  1.00  16748.77  1674877.00
847.5  1.00  16831.19  1683119.00
848.7  1.00  16879.46  1687946.00
849.9  1.00  16940.80  1694080.00
851.0  1.00  16948.72  1694872.00
852.2  1.00  16966.15  1696615.00
853.3  1.00  16953.95  1695395.00
854.5  1.00  16936.84  1693684.00
855.6  1.00  16936.46  1693646.00
856.8  1.00  16943.46  1694346.00
857.9  1.00  16928.15  1692815.00
859.1  1.00  16983.66  1698366.00
860.2  1.00  16982.38  1698238.00
861.4  1.00  16994.86  1699486.00
862.5  1.00  17010.99  1701099.00
863.7  1.00  17036.44  1703644.00
864.8  1.00  17053.93  1705393.00
865.9  1.00  17026.65  1702665.00
867.1  1.00  17027.68  1702768.00
868.2  1.00  17034.32  1703432.00
869.3  1.00  17012.43  1701243.00
870.5  1.00  16985.04  1698504.00
871.6  1.00  16984.00  1698400.00
872.7  1.00  16990.93  1699093.00
873.9  1.00  16978.41  1697841.00
875.0  1.00  16947.44  1694744.00
876.1  1.00  16947.04  1694704.00
877.2  1.00  16926.03  1692603.00
878.3  1.00  16894.56  1689456.00
879.4  1.00  16881.97  1688197.00
880.5  1.00  16869.67  1686967.00
881.7  1.00  16836.63  1683663.00
882.8  1.00  16819.93  1681993.00
883.9  1.00  16788.13  1678813.00
885.0  1.00  16727.33  1672733.00
886.1  1.00  16668.30  1666830.00
887.2  1.00  16577.98  1657798.00
888.3  1.00  16498.54  1649854.00
889.4  1.00  16435.74  1643574.00
890.5  1.00  16395.41  1639541.00
891.6  1.00  16338.85  1633885.00
892.7  1.00  16304.50  1630450.00
893.8  1.00  16293.95  1629395.00
894.9  1.00  16266.01  1626601.00
896.0  1.00  16231.33  1623133.00
897.0  1.00  16227.04  1622704.00
898.1  1.00  16195.55  1619555.00
899.2  1.00  16155.40  1615540.00
900.3  1.00  16106.67  1610667.00
901.4  1.00  16064.46  1606446.00
902.4  1.00  16043.13  1604313.00
903.5  1.00  15971.65  1597165.00
904.6  1.00  15949.10  1594910.00
905.7  1.00  15908.51  1590851.00
906.7  1.00  15886.19  1588619.00
907.8  1.00  15877.59  1587759.00
908.9  1.00  15816.21  1581621.00
909.9  1.00  15753.75  1575375.00
911.0  1.00  15714.56  1571456.00
912.1  1.00  15637.65  1563765.00
913.1  1.00  15567.92  1556792.00
914.2  1.00  15505.76  1550576.00
915.2  1.00  15467.52  1546752.00
916.3  1.00  15396.60  1539660.00
917.3  1.00  15324.48  1532448.00
918.4  1.00  15242.15  1524215.00
919.4  1.00  15176.55  1517655.00
920.5  1.00  15101.43  1510143.00
921.5  1.00  15032.76  1503276.00
922.6  1.00  14931.93  1493193.00
923.6  1.00  14868.64  1486864.00
924.7  1.00  14801.68  1480168.00
925.7  1.00  14706.62  1470662.00
926.7  1.00  14636.17  1463617.00
927.8  1.00  14544.67  1454467.00
928.8  1.00  14495.53  1449553.00
929.9  1.00  14415.01  1441501.00
930.9  1.00  14406.60  1440660.00
931.9  1.00  14383.33  1438333.00
932.9  1.00  14374.28  1437428.00
934.0  1.00  14278.95  1427895.00
935.0  1.00  14199.09  1419909.00
936.0  1.00  14109.77  1410977.00
937.0  1.00  13981.38  1398138.00
938.1  1.00  13886.06  1388606.00
939.1  1.00  13773.26  1377326.00
940.1  1.00  13679.35  1367935.00
941.1  1.00  13658.24  1365824.00
942.1  1.00  13631.02  1363102.00
943.1  1.00  13605.79  1360579.00
944.1  1.00  13542.81  1354281.00
945.2  1.00  13435.34  1343534.00
946.2  1.00  13336.30  1333630.00
947.2  1.00  13243.93  1324393.00
948.2  1.00  13154.22  1315422.00
949.2  1.00  13052.82  1305282.00
950.2  1.00  12937.24  1293724.00
951.2  1.00  12820.58  1282058.00
952.2  1.00  12679.60  1267960.00
953.2  1.00  12591.56  1259156.00
954.2  1.00  12492.65  1249265.00
955.2  1.00  12415.97  1241597.00
956.2  1.00  12270.39  1227039.00
957.2  1.00  12173.31  1217331.00
958.2  1.00  12116.47  1211647.00
959.2  1.00  12044.61  1204461.00
960.1  1.00  11985.49  1198549.00
961.1  1.00  11950.25  1195025.00
962.1  1.00  11900.54  1190054.00
963.1  1.00  11855.80  1185580.00
964.1  1.00  11809.79  1180979.00
965.1  1.00  11824.09  1182409.00
966.1  1.00  11775.96  1177596.00
967.0  1.00  11753.63  1175363.00
968.0  1.00  11742.86  1174286.00
969.0  1.00  11686.54  1168654.00
970.0  1.00  11674.15  1167415.00
971.0  1.00  11656.81  1165681.00
971.9  1.00  11641.07  1164107.00
972.9  1.00  11585.63  1158563.00
973.9  1.00  11538.35  1153835.00
974.9  1.00  11475.94  1147594.00
975.8  1.00  11398.41  1139841.00
976.8  1.00  11339.06  1133906.00
977.8  1.00  11312.60  1131260.00
978.8  1.00  11212.67  1121267.00
979.7  1.00  11125.68  1112568.00
981.4  1.00  13975.20  1397520.00
985.3  1.00  13859.39  1385939.00
989.3  1.00  13815.69  1381569.00
993.3  1.00  13807.72  1380772.00
997.2  1.00  13798.31  1379831.00
1001.2  1.00  13866.13  1386613.00
1005.2  1.00  14028.07  1402807.00
1009.1  1.00  14266.15  1426615.00
1013.1  1.00  14529.76  1452976.00
1017.1  1.00  14782.02  1478202.00
1021.0  1.00  14974.90  1497490.00
1025.0  1.00  15162.12  1516212.00
1029.0  1.00  15329.87  1532987.00
1032.9  1.00  15502.31  1550231.00
1036.9  1.00  15724.63  1572463.00
1040.9  1.00  15988.49  1598849.00
1044.8  1.00  16261.72  1626172.00
1048.8  1.00  16493.27  1649327.00
1052.7  1.00  16686.38  1668638.00
1056.7  1.00  16822.25  1682225.00
1060.7  1.00  16928.08  1692808.00
1064.6  1.00  17005.50  1700550.00
1068.6  1.00  17011.64  1701164.00
1072.5  1.00  16989.53  1698953.00
1076.5  1.00  16942.75  1694275.00
1080.4  1.00  16874.64  1687464.00
1084.4  1.00  16809.01  1680901.00
1088.3  1.00  16720.72  1672072.00
1092.3  1.00  16563.03  1656303.00
1096.2  1.00  16384.98  1638498.00
1100.2  1.00  16229.45  1622945.00
1104.1  1.00  16024.94  1602494.00
1108.1  1.00  15835.54  1583554.00
1112.0  1.00  15616.50  1561650.00
1116.0  1.00  15335.63  1533563.00
1119.9  1.00  15017.77  1501777.00
1123.9  1.00  14688.03  1468803.00
1127.8  1.00  14210.88  1421088.00
1131.8  1.00  13605.51  1360551.00
1135.7  1.00  12912.65  1291265.00
1139.6  1.00  12180.49  1218049.00
1143.6  1.00  11507.47  1150747.00
1147.5  1.00  10959.04  1095904.00
1151.4  1.00  10527.18  1052718.00
1155.4  1.00  10264.12  1026412.00
1159.3  1.00  10104.45  1010445.00
1163.2  1.00  9965.50  996550.00
1167.2  1.00  9896.96  989696.00
1171.1  1.00  9844.85  984485.00
1175.0  1.00  9786.43  978643.00
1179.0  1.00  9736.16  973616.00
1182.9  1.00  9713.04  971304.00
1186.8  1.00  9676.98  967698.00
1190.7  1.00  9596.25  959625.00
1194.7  1.00  9523.50  952350.00
1198.6  1.00  9480.24  948024.00
1202.5  1.00  9459.64  945964.00
1206.4  1.00  9464.82  946482.00
1210.3  1.00  9483.65  948365.00
1214.2  1.00  9507.87  950787.00
1218.2  1.00  9531.27  953127.00
1222.1  1.00  9571.19  957119.00
1226.0  1.00  9619.93  961993.00
1229.9  1.00  9660.84  966084.00
1233.8  1.00  9689.66  968966.00
1237.7  1.00  9727.07  972707.00
1241.6  1.00  9756.80  975680.00
1245.5  1.00  9766.14  976614.00
1249.4  1.00  9777.18  977718.00
1253.3  1.00  9786.57  978657.00
1257.2  1.00  9800.19  980019.00
1261.1  1.00  9795.58  979558.00
1265.0  1.00  9767.96  976796.00
1268.9  1.00  9710.85  971085.00
1272.8  1.00  9699.98  969998.00
1276.7  1.00  9703.44  970344.00
1280.6  1.00  9662.33  966233.00
1284.5  1.00  9574.77  957477.00
1288.4  1.00  9476.88  947688.00
1292.3  1.00  9341.06  934106.00
1296.2  1.00  9187.57  918757.00
1300.1  1.00  9005.44  900544.00
1303.9  1.00  8786.00  878600.00
1307.8  1.00  8554.96  855496.00
1311.7  1.00  8315.81  831581.00
1315.6  1.00  8065.45  806545.00
1319.5  1.00  7801.70  780170.00
1323.3  1.00  7533.07  753307.00
1327.2  1.00  7265.44  726544.00
1331.1  1.00  7009.56  700956.00
1335.0  1.00  6753.39  675339.00
1338.8  1.00  6521.20  652120.00
1342.7  1.00  6308.44  630844.00
1346.5  1.00  6079.09  607909.00
1350.4  1.00  5874.46  587446.00
1354.3  1.00  5664.53  566453.00
1358.1  1.00  5461.39  546139.00
1362.0  1.00  5287.10  528710.00
1365.8  1.00  5132.87  513287.00
1369.7  1.00  4972.42  497242.00
1373.5  1.00  4733.09  473309.00
1377.4  1.00  4426.17  442617.00
1381.2  1.00  4092.06  409206.00
1385.1  1.00  3771.44  377144.00
1389.0  1.00  3446.89  344689.00
1392.8  1.00  3124.03  312403.00
1396.6  1.00  2844.07  284407.00
1400.5  1.00  2602.18  260218.00
1404.3  1.00  2412.90  241290.00
1408.2  1.00  2274.37  227437.00
1412.0  1.00  2161.12  216112.00
1415.8  1.00  2079.67  207967.00
1419.6  1.00  2016.09  201609.00
1423.5  1.00  1964.66  196466.00
1427.3  1.00  1927.68  192768.00
1431.1  1.00  1897.78  189778.00
1434.9  1.00  1870.85  187085.00
1438.8  1.00  1856.05  185605.00
1442.6  1.00  1848.13  184813.00
1446.4  1.00  1834.78  183478.00
1450.2  1.00  1827.48  182748.00
1454.0  1.00  1820.58  182058.00
1457.8  1.00  1821.24  182124.00
1461.6  1.00  1831.28  183128.00
1465.4  1.00  1838.68  183868.00
1469.2  1.00  1848.44  184844.00
1473.0  1.00  1870.56  187056.00
1476.8  1.00  1905.55  190555.00
1480.7  1.00  1943.42  194342.00
1484.4  1.00  1985.88  198588.00
1488.2  1.00  2038.89  203889.00
1492.0  1.00  2094.36  209436.00
1495.8  1.00  2145.33  214533.00
1499.6  1.00  2180.43  218043.00
1503.4  1.00  2183.90  218390.00
1507.2  1.00  2169.29  216929.00
1510.9  1.00  2177.23  217723.00
1514.7  1.00  2204.65  220465.00
1518.5  1.00  2251.16  225116.00
1522.3  1.00  2303.86  230386.00
1526.0  1.00  2352.43  235243.00
1529.8  1.00  2402.07  240207.00
1533.6  1.00  2446.76  244676.00
1537.3  1.00  2489.84  248984.00
1541.1  1.00  2532.16  253216.00
1544.8  1.00  2571.00  257100.00
1548.6  1.00  2608.94  260894.00
1552.4  1.00  2647.83  264783.00
1556.1  1.00  2681.73  268173.00
1559.9  1.00  2708.21  270821.00
1563.6  1.00  2731.82  273182.00
1567.3  1.00  2770.61  277061.00
1571.1  1.00  2810.08  281008.00
1574.8  1.00  2845.90  284590.00
1578.6  1.00  2874.56  287456.00
1582.3  1.00  2897.26  289726.00
1586.0  1.00  2917.73  291773.00
1589.8  1.00  2933.52  293352.00
1593.5  1.00  2949.66  294966.00
1597.2  1.00  2967.64  296764.00
1600.9  1.00  2982.72  298272.00
1604.7  1.00  2997.14  299714.00
1608.4  1.00  3015.92  301592.00
1612.1  1.00  3028.98  302898.00
1615.8  1.00  3042.39  304239.00
1619.5  1.00  3063.71  306371.00
1623.2  1.00  3077.85  307785.00
1626.9  1.00  3086.84  308684.00
1630.6  1.00  3095.79  309579.00
1634.3  1.00  3101.09  310109.00
1638.0  1.00  3102.36  310236.00
1641.7  1.00  3097.98  309798.00
1645.4  1.00  3085.27  308527.00
1649.1  1.00  3074.47  307447.00
1652.8  1.00  3064.78  306478.00
1656.4  1.00  3046.87  304687.00
1660.1  1.00  3031.63  303163.00
1663.8  1.00  3017.24  301724.00
1667.5  1.00  3005.49  300549.00
1671.1  1.00  2990.08  299008.00
1674.8  1.00  2964.66  296466.00
1678.5  1.00  2953.97  295397.00
1682.1  1.00  2946.15  294615.00
1685.8  1.00  2937.72  293772.00
1689.5  1.00  2917.72  291772.00
1693.1  1.00  2887.85  288785.00
1696.8  1.00  2860.69  286069.00
1700.4  1.00  2825.65  282565.00
1704.0  1.00  2789.67  278967.00
1707.7  1.00  2743.22  274322.00
1711.3  1.00  2688.43  268843.00
1715.0  1.00  2642.06  264206.00
1718.6  1.00  2599.66  259966.00
1722.2  1.00  2559.10  255910.00
1725.9  1.00  2516.76  251676.00
1729.5  1.00  2480.33  248033.00
1733.1  1.00  2455.98  245598.00
1736.7  1.00  2435.59  243559.00
1740.3  1.00  2407.58  240758.00
1744.0  1.00  2379.23  237923.00
1747.5  1.00  2344.38  234438.00
1751.2  1.00  2300.61  230061.00
1754.8  1.00  2260.98  226098.00
1758.4  1.00  2221.89  222189.00
1762.0  1.00  2184.14  218414.00
1765.5  1.00  2161.45  216145.00
1769.1  1.00  2145.60  214560.00
1772.7  1.00  2125.64  212564.00
1776.3  1.00  2107.14  210714.00
1779.9  1.00  2082.98  208298.00
1783.5  1.00  2067.70  206770.00
1787.0  1.00  2048.56  204856.00
1790.6  1.00  2035.17  203517.00
1794.2  1.00  2027.83  202783.00
1797.8  1.00  2018.80  201880.00
1801.3  1.00  2009.95  200995.00
1804.9  1.00  2000.91  200091.00
1808.4  1.00  1996.41  199641.00
1812.0  1.00  1986.03  198603.00
1815.5  1.00  1972.41  197241.00
1819.1  1.00  1959.56  195956.00
1822.6  1.00  1947.33  194733.00
1826.2  1.00  1933.36  193336.00
1829.7  1.00  1914.53  191453.00
1833.2  1.00  1890.01  189001.00
1836.8  1.00  1865.62  186562.00
1840.3  1.00  1846.17  184617.00
1843.8  1.00  1833.34  183334.00
1847.3  1.00  1820.25  182025.00
1850.8  1.00  1806.34  180634.00
1854.3  1.00  1777.84  177784.00
1857.8  1.00  1727.70  172770.00
1861.3  1.00  1663.76  166376.00
1864.8  1.00  1588.15  158815.00
1868.3  1.00  1476.35  147635.00
1871.8  1.00  1351.68  135168.00
1875.3  1.00  1255.01  125501.00
1878.8  1.00  1167.83  116783.00
1882.3  1.00  1084.87  108487.00
1885.8  1.00  1001.87  100187.00
1889.3  1.00  923.77  92377.00
1892.7  1.00  878.76  87876.00
1896.2  1.00  827.23  82723.00
1899.7  1.00  791.85  79185.00
1901.7  1.00  661.31  66131.00
1904.5  1.00  0.00  0.00
1907.2  1.00  285.00  28500.00
1910.0  1.00  616.08  61608.00
1912.7  1.00  60.05  6005.00
1915.5  1.00  310.48  31048.00
1918.2  1.00  617.26  61726.00
1921.0  1.00  103.15  10315.00
1923.7  1.00  300.15  30015.00
1926.5  1.00  561.78  56178.00
1929.2  1.00  120.25  12025.00
1932.0  1.00  260.70  26070.00
1934.7  1.00  515.90  51590.00
1937.4  1.00  139.58  13958.00
1940.2  1.00  322.70  32270.00
1942.9  1.00  548.10  54810.00
1945.6  1.00  113.25  11325.00
1948.3  1.00  315.88  31588.00
1951.1  1.00  586.95  58695.00
1953.8  1.00  202.50  20250.00
1956.5  1.00  314.48  31448.00
1959.2  1.00  560.63  56063.00
1961.9  1.00  178.80  17880.00
1964.6  1.00  312.38  31238.00
1967.3  1.00  578.50  57850.00
1970.0  1.00  222.00  22200.00
1972.8  1.00  330.94  33094.00
1975.5  1.00  526.80  52680.00
1978.2  1.00  175.20  17520.00
1980.9  1.00  327.94  32794.00
1983.5  1.00  588.94  58894.00
1986.2  1.00  218.25  21825.00
1988.9  1.00  371.03  37103.00
1991.6  1.00  651.75  65175.00
1994.3  1.00  216.63  21663.00
1997.0  1.00  346.00  34600.00
1999.7  1.00  624.59  62459.00
2002.3  1.00  280.48  28048.00
2005.0  1.00  431.50  43150.00
2007.7  1.00  666.50  66650.00
2010.4  1.00  278.36  27836.00
2013.0  1.00  426.75  42675.00
2015.7  1.00  682.00  68200.00
2018.4  1.00  297.85  29785.00
2021.0  1.00  403.75  40375.00
2023.7  1.00  636.00  63600.00
2026.4  1.00  274.63  27463.00
2029.0  1.00  463.93  46393.00
2031.7  1.00  697.13  69713.00
2034.3  1.00  295.75  29575.00
2037.0  1.00  422.25  42225.00
2039.6  1.00  675.20  67520.00
2042.3  1.00  337.00  33700.00
2044.9  1.00  441.79  44179.00
2047.5  1.00  673.20  67320.00
2050.2  1.00  315.00  31500.00
2052.8  1.00  441.00  44100.00
2055.4  1.00  672.40  67240.00
2058.1  1.00  357.00  35700.00
2060.7  1.00  503.10  50310.00
2063.3  1.00  689.70  68970.00
2065.9  1.00  335.00  33500.00
2068.6  1.00  460.63  46063.00
2071.2  1.00  732.38  73238.00
2073.8  1.00  356.79  35679.00
2076.4  1.00  484.15  48415.00
2079.0  1.00  674.40  67440.00
2081.6  1.00  337.60  33760.00
2084.2  1.00  507.90  50790.00
2086.8  1.00  742.44  74244.00
2089.4  1.00  404.23  40423.00
2092.1  1.00  573.75  57375.00
2094.7  1.00  762.75  76275.00
2097.2  1.00  340.00  34000.00
2099.8  1.00  469.70  46970.00
2102.4  1.00  725.05  72505.00
2105.0  1.00  384.75  38475.00
2107.6  1.00  534.06  53406.00
2110.2  1.00  745.94  74594.00
2112.8  1.00  386.55  38655.00
2115.3  1.00  519.60  51960.00
2117.9  1.00  739.93  73993.00
2120.5  1.00  349.80  34980.00
2123.1  1.00  526.50  52650.00
2125.6  1.00  768.69  76869.00
2128.2  1.00  417.05  41705.00
2130.8  1.00  504.56  50456.00
2133.3  1.00  770.00  77000.00
2135.9  1.00  397.13  39713.00
2138.4  1.00  464.10  46410.00
2141.0  1.00  727.24  72724.00
2143.6  1.00  395.78  39578.00
2146.1  1.00  528.90  52890.00
2148.7  1.00  726.83  72683.00
2151.2  1.00  352.00  35200.00
2153.8  1.00  485.65  48565.00
2156.3  1.00  797.40  79740.00
2158.8  1.00  354.40  35440.00
2161.4  1.00  486.48  48648.00
2163.9  1.00  773.94  77394.00
2166.4  1.00  354.80  35480.00
2169.0  1.00  465.68  46568.00
2171.5  1.00  776.13  77613.00
2174.0  1.00  401.63  40163.00
2176.5  1.00  515.78  51578.00
2179.1  1.00  745.39  74539.00
2181.6  1.00  365.00  36500.00
2184.1  1.00  531.30  53130.00
2186.6  1.00  823.81  82381.00
2189.1  1.00  385.20  38520.00
2191.6  1.00  490.00  49000.00
2194.1  1.00  747.38  74738.00
2196.6  1.00  305.70  30570.00
2199.2  1.00  470.93  47093.00
2201.7  1.00  779.01  77901.00
2204.1  1.00  302.36  30236.00
2206.6  1.00  447.60  44760.00
2209.1  1.00  709.69  70969.00
2211.6  1.00  228.40  22840.00
2214.1  1.00  513.23  51323.00
2216.6  1.00  826.14  82614.00
2219.1  1.00  313.36  31336.00
2221.6  1.00  399.70  39970.00
2224.0  1.00  742.95  74295.00
2226.5  1.00  228.30  22830.00
2229.0  1.00  399.70  39970.00
2231.5  1.00  746.85  74685.00
2233.9  1.00  230.90  23090.00
2236.4  1.00  405.30  40530.00
2238.9  1.00  697.50  69750.00
2241.3  1.00  204.05  20405.00
2243.8  1.00  437.25  43725.00
2246.2  1.00  668.73  66873.00
2248.7  1.00  144.63  14463.00
2251.2  1.00  345.90  34590.00
2253.6  1.00  691.20  69120.00
2256.1  1.00  201.60  20160.00
2258.5  1.00  403.38  40338.00
2260.9  1.00  690.30  69030.00
2263.4  1.00  172.73  17273.00
2265.8  1.00  403.90  40390.00
2268.3  1.00  663.84  66384.00
2270.7  1.00  143.94  14394.00
2273.1  1.00  316.39  31639.00
2275.6  1.00  633.60  63360.00
2278.0  1.00  201.78  20178.00
2280.4  1.00  288.63  28863.00
2282.8  1.00  609.79  60979.00
2285.3  1.00  116.65  11665.00
2287.7  1.00  234.30  23430.00
2290.1  1.00  533.70  53370.00
2292.5  1.00  29.76  2976.00
2294.9  1.00  237.10  23710.00
2297.3  1.00  533.93  53393.00
2299.7  1.00  88.84  8884.00
2302.1  1.00  235.70  23570.00
2304.5  1.00  529.20  52920.00
2306.9  1.00  29.40  2940.00
2309.3  1.00  235.10  23510.00
2311.7  1.00  588.75  58875.00
2314.1  1.00  29.54  2954.00
2316.5  1.00  206.85  20685.00
2318.9  1.00  502.56  50256.00
2321.3  1.00  0.00  0.00
2323.7  1.00  149.75  14975.00
2326.1  1.00  544.05  54405.00
2328.4  1.00  30.51  3051.00
2330.8  1.00  153.38  15338.00
2333.2  1.00  525.09  52509.00
2335.6  1.00  31.14  3114.00
2337.9  1.00  187.80  18780.00
2340.3  1.00  535.29  53529.00
2342.7  1.00  0.00  0.00
2345.0  1.00  159.25  15925.00
2347.4  1.00  541.88  54188.00
2349.7  1.00  32.04  3204.00
2352.1  1.00  225.14  22514.00
2354.4  1.00  580.28  58028.00
2356.8  1.00  0.00  0.00
2359.2  1.00  162.50  16250.00
2361.5  1.00  458.15  45815.00
2363.8  1.00  0.00  0.00
2366.2  1.00  99.30  9930.00
2368.5  1.00  433.88  43388.00
2370.9  1.00  0.00  0.00
2373.2  1.00  101.18  10118.00
2375.5  1.00  407.25  40725.00
2377.9  1.00  0.00  0.00
2380.2  1.00  103.09  10309.00
2382.5  1.00  413.55  41355.00
2384.8  1.00  0.00  0.00
2387.2  1.00  105.49  10549.00
2389.5  1.00  389.54  38954.00
2391.8  1.00  0.00  0.00
2394.1  1.00  107.96  10796.00
2396.4  1.00  508.03  50803.00
2398.7  1.00  0.00  0.00
2401.0  1.00  37.09  3709.00
2403.3  1.00  410.85  41085.00
2405.6  1.00  0.00  0.00
2407.9  1.00  37.58  3758.00
2410.2  1.00  413.60  41360.00
2412.5  1.00  -38.11  -3811.00
2414.8  1.00  0.00  0.00
2417.1  1.00  425.84  42584.00
2419.4  1.00  -39.08  -3908.00
2421.7  1.00  39.43  3943.00
2424.0  1.00  435.88  43588.00
2426.2  1.00  0.00  0.00
2428.5  1.00  0.00  0.00
2430.8  1.00  490.50  49050.00
2433.1  1.00  0.00  0.00
2435.4  1.00  0.00  0.00
2437.6  1.00  377.66  37766.00
2439.9  1.00  0.00  0.00
2442.2  1.00  0.00  0.00
2444.4  1.00  344.60  34460.00
2446.7  1.00  -43.80  -4380.00
2448.9  1.00  0.00  0.00
2451.2  1.00  357.60  35760.00
2453.4  1.00  -45.20  -4520.00
2455.7  1.00  0.00  0.00
2457.9  1.00  228.94  22894.00
2460.2  1.00  -184.95  -18495.00
2462.4  1.00  0.00  0.00
2464.7  1.00  378.50  37850.00
2466.9  1.00  -144.45  -14445.00
2469.2  1.00  0.00  0.00
2471.4  1.00  344.66  34466.00
2473.6  1.00  -100.43  -10043.00
2475.9  1.00  0.00  0.00
2478.1  1.00  409.90  40990.00
2480.3  1.00  -156.64  -15664.00
2482.5  1.00  0.00  0.00
2484.8  1.00  382.29  38229.00
2487.0  1.00  -277.75  -27775.00
2489.2  1.00  0.00  0.00
2491.4  1.00  576.38  57638.00
2493.6  1.00  -176.36  -17636.00
2495.8  1.00  0.00  0.00
2498.0  1.00  364.80  36480.00
2500.2  1.00  -379.13  -37913.00
2502.4  1.00  0.00  0.00
2504.6  1.00  422.55  42255.00
2506.8  1.00  0.00  0.00
