/*** Spectra Vista SIG Data ***/
name= GS1.sig
comm= SIG file reprocesed for matching/overlap;Averaged Ref/Tar of files: GD4S1,GD4S2,GD4S3
data=
346.4  1.00  101.07  10107.00
347.9  1.00  95.38  9538.00
349.5  1.00  98.59  9859.00
351.1  1.00  98.59  9859.00
352.6  1.00  103.73  10373.00
354.2  1.00  102.54  10254.00
355.7  1.00  107.76  10776.00
357.3  1.00  114.66  11466.00
358.8  1.00  115.57  11557.00
360.4  1.00  119.60  11960.00
361.9  1.00  122.58  12258.00
363.5  1.00  123.27  12327.00
365.1  1.00  127.14  12714.00
366.6  1.00  127.05  12705.00
368.2  1.00  122.22  12222.00
369.7  1.00  121.89  12189.00
371.3  1.00  133.90  13390.00
372.8  1.00  132.36  13236.00
374.4  1.00  136.17  13617.00
375.9  1.00  138.58  13858.00
377.4  1.00  139.21  13921.00
379.0  1.00  148.52  14852.00
380.5  1.00  143.62  14362.00
382.1  1.00  144.99  14499.00
383.6  1.00  147.04  14704.00
385.2  1.00  150.33  15033.00
386.7  1.00  160.65  16065.00
388.3  1.00  161.24  16124.00
389.8  1.00  173.85  17385.00
391.3  1.00  177.87  17787.00
392.9  1.00  193.46  19346.00
394.4  1.00  204.56  20456.00
395.9  1.00  215.61  21561.00
397.5  1.00  226.96  22696.00
399.0  1.00  231.13  23113.00
400.6  1.00  233.57  23357.00
402.1  1.00  233.23  23323.00
403.6  1.00  235.91  23591.00
405.1  1.00  239.47  23947.00
406.7  1.00  245.20  24520.00
408.2  1.00  253.04  25304.00
409.7  1.00  264.62  26462.00
411.3  1.00  274.79  27479.00
412.8  1.00  289.46  28946.00
414.3  1.00  300.23  30023.00
415.8  1.00  311.67  31167.00
417.4  1.00  317.09  31709.00
418.9  1.00  330.25  33025.00
420.4  1.00  335.99  33599.00
421.9  1.00  341.38  34138.00
423.5  1.00  344.65  34465.00
425.0  1.00  349.41  34941.00
426.5  1.00  355.47  35547.00
428.0  1.00  358.50  35850.00
429.5  1.00  367.61  36761.00
431.1  1.00  379.52  37952.00
432.6  1.00  390.40  39040.00
434.1  1.00  402.45  40245.00
435.6  1.00  417.44  41744.00
437.1  1.00  427.70  42770.00
438.6  1.00  444.09  44409.00
440.1  1.00  453.86  45386.00
441.6  1.00  474.19  47419.00
443.1  1.00  490.32  49032.00
444.7  1.00  513.48  51348.00
446.2  1.00  530.74  53074.00
447.7  1.00  554.62  55462.00
449.2  1.00  578.30  57830.00
450.7  1.00  592.94  59294.00
452.2  1.00  615.96  61596.00
453.7  1.00  637.72  63772.00
455.2  1.00  659.60  65960.00
456.7  1.00  690.39  69039.00
458.2  1.00  714.38  71438.00
459.7  1.00  747.13  74713.00
461.2  1.00  774.72  77472.00
462.7  1.00  799.77  79977.00
464.2  1.00  822.77  82277.00
465.7  1.00  852.64  85264.00
467.2  1.00  873.18  87318.00
468.7  1.00  898.93  89893.00
470.2  1.00  923.28  92328.00
471.7  1.00  944.62  94462.00
473.2  1.00  965.84  96584.00
474.6  1.00  994.16  99416.00
476.1  1.00  1007.42  100742.00
477.6  1.00  1022.34  102234.00
479.1  1.00  1034.59  103459.00
480.6  1.00  1049.07  104907.00
482.1  1.00  1068.31  106831.00
483.6  1.00  1091.18  109118.00
485.1  1.00  1121.24  112124.00
486.6  1.00  1162.70  116270.00
488.0  1.00  1202.07  120207.00
489.5  1.00  1252.60  125260.00
491.0  1.00  1312.15  131215.00
492.5  1.00  1369.87  136987.00
494.0  1.00  1439.24  143924.00
495.4  1.00  1507.88  150788.00
496.9  1.00  1585.61  158561.00
498.4  1.00  1668.58  166858.00
499.9  1.00  1758.49  175849.00
501.4  1.00  1850.63  185063.00
502.8  1.00  1949.99  194999.00
504.3  1.00  2048.40  204840.00
505.8  1.00  2158.64  215864.00
507.2  1.00  2260.60  226060.00
508.7  1.00  2363.33  236333.00
510.2  1.00  2462.81  246281.00
511.6  1.00  2558.82  255882.00
513.1  1.00  2665.87  266587.00
514.6  1.00  2776.48  277648.00
516.0  1.00  2885.99  288599.00
517.5  1.00  3012.28  301228.00
519.0  1.00  3142.24  314224.00
520.5  1.00  3275.19  327519.00
521.9  1.00  3414.42  341442.00
523.4  1.00  3564.93  356493.00
524.8  1.00  3710.17  371017.00
526.3  1.00  3859.32  385932.00
527.8  1.00  4009.73  400973.00
529.2  1.00  4149.29  414929.00
530.7  1.00  4289.16  428916.00
532.1  1.00  4419.59  441959.00
533.6  1.00  4559.78  455978.00
535.0  1.00  4698.08  469808.00
536.5  1.00  4828.17  482817.00
538.0  1.00  4967.02  496702.00
539.4  1.00  5094.16  509416.00
540.9  1.00  5239.05  523905.00
542.3  1.00  5366.70  536670.00
543.8  1.00  5469.84  546984.00
545.2  1.00  5530.71  553071.00
546.6  1.00  5568.16  556816.00
548.1  1.00  5606.48  560648.00
549.5  1.00  5640.22  564022.00
551.0  1.00  5667.14  566714.00
552.4  1.00  5700.30  570030.00
553.9  1.00  5723.94  572394.00
555.3  1.00  5754.76  575476.00
556.8  1.00  5794.26  579426.00
558.2  1.00  5831.33  583133.00
559.6  1.00  5880.04  588004.00
561.1  1.00  5941.87  594187.00
562.5  1.00  6010.66  601066.00
564.0  1.00  6093.16  609316.00
565.4  1.00  6171.12  617112.00
566.8  1.00  6257.81  625781.00
568.3  1.00  6338.22  633822.00
569.7  1.00  6420.10  642010.00
571.1  1.00  6486.70  648670.00
572.6  1.00  6555.60  655560.00
574.0  1.00  6617.38  661738.00
575.4  1.00  6675.53  667553.00
576.9  1.00  6726.49  672649.00
578.3  1.00  6775.58  677558.00
579.7  1.00  6820.22  682022.00
581.1  1.00  6851.36  685136.00
582.6  1.00  6892.95  689295.00
584.0  1.00  6926.18  692618.00
585.4  1.00  6978.92  697892.00
586.8  1.00  7055.47  705547.00
588.3  1.00  7140.12  714012.00
589.7  1.00  7213.44  721344.00
591.1  1.00  7256.63  725663.00
592.5  1.00  7269.57  726957.00
594.0  1.00  7269.46  726946.00
595.4  1.00  7256.49  725649.00
596.8  1.00  7246.67  724667.00
598.2  1.00  7231.67  723167.00
599.6  1.00  7207.46  720746.00
601.0  1.00  7207.09  720709.00
602.4  1.00  7200.59  720059.00
603.9  1.00  7208.78  720878.00
605.3  1.00  7205.86  720586.00
606.7  1.00  7200.24  720024.00
608.1  1.00  7208.15  720815.00
609.5  1.00  7221.04  722104.00
610.9  1.00  7250.68  725068.00
612.3  1.00  7263.94  726394.00
613.7  1.00  7293.63  729363.00
615.1  1.00  7287.62  728762.00
616.5  1.00  7286.49  728649.00
617.9  1.00  7334.11  733411.00
619.3  1.00  7384.50  738450.00
620.7  1.00  7469.70  746970.00
622.1  1.00  7406.33  740633.00
623.5  1.00  7295.27  729527.00
624.9  1.00  7236.08  723608.00
626.3  1.00  7221.19  722119.00
627.7  1.00  7138.19  713819.00
629.1  1.00  7120.56  712056.00
630.5  1.00  7149.80  714980.00
631.9  1.00  7212.58  721258.00
633.3  1.00  7263.29  726329.00
634.7  1.00  7321.64  732164.00
636.1  1.00  7324.41  732441.00
637.5  1.00  7333.82  733382.00
638.9  1.00  7347.54  734754.00
640.2  1.00  7337.23  733723.00
641.6  1.00  7305.48  730548.00
643.0  1.00  7245.50  724550.00
644.4  1.00  7195.54  719554.00
645.8  1.00  7128.61  712861.00
647.2  1.00  7102.73  710273.00
648.5  1.00  7079.22  707922.00
649.9  1.00  7024.65  702465.00
651.3  1.00  6989.04  698904.00
652.7  1.00  6925.80  692580.00
654.1  1.00  6687.92  668792.00
655.5  1.00  6399.74  639974.00
656.8  1.00  6138.21  613821.00
658.2  1.00  5973.68  597368.00
659.6  1.00  5847.21  584721.00
660.9  1.00  5719.80  571980.00
662.3  1.00  5588.40  558840.00
663.7  1.00  5448.24  544824.00
665.0  1.00  5302.32  530232.00
666.4  1.00  5183.70  518370.00
667.8  1.00  5092.29  509229.00
669.1  1.00  4998.53  499853.00
670.5  1.00  4935.23  493523.00
671.9  1.00  4874.51  487451.00
673.2  1.00  4854.56  485456.00
674.6  1.00  4859.66  485966.00
676.0  1.00  4891.93  489193.00
677.3  1.00  4951.74  495174.00
678.7  1.00  5046.73  504673.00
680.0  1.00  5200.91  520091.00
681.4  1.00  5420.75  542075.00
682.8  1.00  5711.77  571177.00
684.1  1.00  6084.00  608400.00
685.5  1.00  6528.07  652807.00
686.8  1.00  7048.06  704806.00
688.2  1.00  7627.95  762795.00
689.5  1.00  8224.82  822482.00
690.9  1.00  8862.48  886248.00
692.2  1.00  9508.10  950810.00
693.6  1.00  10172.71  1017271.00
694.9  1.00  10779.40  1077940.00
696.2  1.00  11376.72  1137672.00
697.6  1.00  11938.78  1193878.00
698.9  1.00  12487.55  1248755.00
700.3  1.00  13008.95  1300895.00
701.6  1.00  13493.76  1349376.00
703.0  1.00  13934.66  1393466.00
704.3  1.00  14288.76  1428876.00
705.6  1.00  14624.43  1462443.00
707.0  1.00  14932.37  1493237.00
708.3  1.00  15159.30  1515930.00
709.6  1.00  15368.27  1536827.00
711.0  1.00  15516.60  1551660.00
712.3  1.00  15661.10  1566110.00
713.6  1.00  15821.90  1582190.00
714.9  1.00  15957.21  1595721.00
716.3  1.00  16088.68  1608868.00
717.6  1.00  16243.16  1624316.00
718.9  1.00  16314.62  1631462.00
720.2  1.00  16323.83  1632383.00
721.6  1.00  16351.71  1635171.00
722.9  1.00  16363.61  1636361.00
724.2  1.00  16347.32  1634732.00
725.5  1.00  16346.82  1634682.00
726.8  1.00  16312.94  1631294.00
728.1  1.00  16307.19  1630719.00
729.5  1.00  16303.55  1630355.00
730.8  1.00  16300.17  1630017.00
732.1  1.00  16286.38  1628638.00
733.4  1.00  16287.05  1628705.00
734.7  1.00  16268.04  1626804.00
736.0  1.00  16279.24  1627924.00
737.3  1.00  16289.18  1628918.00
738.6  1.00  16354.99  1635499.00
739.9  1.00  16492.82  1649282.00
741.2  1.00  16562.00  1656200.00
742.5  1.00  16717.77  1671777.00
743.8  1.00  16959.64  1695964.00
745.1  1.00  17294.13  1729413.00
746.4  1.00  17642.35  1764235.00
747.7  1.00  17997.56  1799756.00
749.0  1.00  18347.20  1834720.00
750.3  1.00  18503.60  1850360.00
751.6  1.00  18462.29  1846229.00
752.9  1.00  18312.85  1831285.00
754.2  1.00  18135.99  1813599.00
755.4  1.00  17936.13  1793613.00
756.7  1.00  17915.57  1791557.00
758.0  1.00  17974.16  1797416.00
759.3  1.00  18145.48  1814548.00
760.6  1.00  18374.46  1837446.00
761.9  1.00  18568.25  1856825.00
763.1  1.00  18674.30  1867430.00
764.4  1.00  18810.20  1881020.00
765.7  1.00  18919.77  1891977.00
767.0  1.00  19002.14  1900214.00
768.2  1.00  19074.50  1907450.00
769.5  1.00  19152.13  1915213.00
770.8  1.00  19254.97  1925497.00
772.0  1.00  19294.73  1929473.00
773.3  1.00  19366.50  1936650.00
774.6  1.00  19449.56  1944956.00
775.8  1.00  19501.78  1950178.00
777.1  1.00  19520.01  1952001.00
778.4  1.00  19495.81  1949581.00
779.6  1.00  19523.19  1952319.00
780.9  1.00  19525.33  1952533.00
782.1  1.00  19466.01  1946601.00
783.4  1.00  19487.66  1948766.00
784.6  1.00  19528.21  1952821.00
785.9  1.00  19716.18  1971618.00
787.1  1.00  20008.13  2000813.00
788.4  1.00  20175.16  2017516.00
789.6  1.00  20056.04  2005604.00
790.9  1.00  19805.67  1980567.00
792.1  1.00  19597.43  1959743.00
793.4  1.00  19409.62  1940962.00
794.6  1.00  19261.39  1926139.00
795.8  1.00  19165.42  1916542.00
797.1  1.00  19043.59  1904359.00
798.3  1.00  18962.52  1896252.00
799.5  1.00  18922.74  1892274.00
800.8  1.00  18869.30  1886930.00
802.0  1.00  18804.40  1880440.00
803.2  1.00  18708.58  1870858.00
804.5  1.00  18654.41  1865441.00
805.7  1.00  18587.48  1858748.00
806.9  1.00  18523.54  1852354.00
808.1  1.00  18495.08  1849508.00
809.4  1.00  18474.89  1847489.00
810.6  1.00  18431.14  1843114.00
811.8  1.00  18433.27  1843327.00
813.0  1.00  18442.29  1844229.00
814.2  1.00  18454.90  1845490.00
815.4  1.00  18491.90  1849190.00
816.6  1.00  18491.41  1849141.00
817.9  1.00  18472.60  1847260.00
819.1  1.00  18395.54  1839554.00
820.3  1.00  18305.49  1830549.00
821.5  1.00  18239.04  1823904.00
822.7  1.00  18203.97  1820397.00
823.9  1.00  18167.18  1816718.00
825.1  1.00  18125.25  1812525.00
826.3  1.00  18116.10  1811610.00
827.5  1.00  18087.53  1808753.00
828.7  1.00  18058.21  1805821.00
829.9  1.00  18049.18  1804918.00
831.0  1.00  18065.09  1806509.00
832.2  1.00  18073.36  1807336.00
833.4  1.00  18081.48  1808148.00
834.6  1.00  18113.75  1811375.00
835.8  1.00  18123.84  1812384.00
837.0  1.00  18189.60  1818960.00
838.1  1.00  18248.69  1824869.00
839.3  1.00  18279.38  1827938.00
840.5  1.00  18327.77  1832777.00
841.7  1.00  18430.88  1843088.00
842.9  1.00  18523.42  1852342.00
844.0  1.00  18558.00  1855800.00
845.2  1.00  18631.88  1863188.00
846.4  1.00  18674.81  1867481.00
847.5  1.00  18777.51  1877751.00
848.7  1.00  18847.84  1884784.00
849.9  1.00  18910.68  1891068.00
851.0  1.00  18909.15  1890915.00
852.2  1.00  18925.75  1892575.00
853.3  1.00  18890.02  1889002.00
854.5  1.00  18878.19  1887819.00
855.6  1.00  18886.76  1888676.00
856.8  1.00  18933.44  1893344.00
857.9  1.00  18923.26  1892326.00
859.1  1.00  18983.57  1898357.00
860.2  1.00  18994.91  1899491.00
861.4  1.00  19004.87  1900487.00
862.5  1.00  19041.02  1904102.00
863.7  1.00  19081.17  1908117.00
864.8  1.00  19092.59  1909259.00
865.9  1.00  19080.13  1908013.00
867.1  1.00  19087.18  1908718.00
868.2  1.00  19099.91  1909991.00
869.3  1.00  19095.53  1909553.00
870.5  1.00  19060.94  1906094.00
871.6  1.00  19078.51  1907851.00
872.7  1.00  19123.08  1912308.00
873.9  1.00  19126.45  1912645.00
875.0  1.00  19097.23  1909723.00
876.1  1.00  19069.34  1906934.00
877.2  1.00  19079.97  1907997.00
878.3  1.00  19038.47  1903847.00
879.4  1.00  19047.99  1904799.00
880.5  1.00  19042.90  1904290.00
881.7  1.00  19013.63  1901363.00
882.8  1.00  19018.47  1901847.00
883.9  1.00  18992.10  1899210.00
885.0  1.00  18920.90  1892090.00
886.1  1.00  18878.04  1887804.00
887.2  1.00  18782.57  1878257.00
888.3  1.00  18703.20  1870320.00
889.4  1.00  18608.03  1860803.00
890.5  1.00  18557.51  1855751.00
891.6  1.00  18508.16  1850816.00
892.7  1.00  18479.82  1847982.00
893.8  1.00  18506.75  1850675.00
894.9  1.00  18494.95  1849495.00
896.0  1.00  18441.88  1844188.00
897.0  1.00  18431.76  1843176.00
898.1  1.00  18404.11  1840411.00
899.2  1.00  18403.54  1840354.00
900.3  1.00  18325.52  1832552.00
901.4  1.00  18246.61  1824661.00
902.4  1.00  18244.27  1824427.00
903.5  1.00  18194.82  1819482.00
904.6  1.00  18174.62  1817462.00
905.7  1.00  18143.50  1814350.00
906.7  1.00  18103.52  1810352.00
907.8  1.00  18112.24  1811224.00
908.9  1.00  18040.86  1804086.00
909.9  1.00  17991.64  1799164.00
911.0  1.00  17928.11  1792811.00
912.1  1.00  17859.05  1785905.00
913.1  1.00  17772.14  1777214.00
914.2  1.00  17694.78  1769478.00
915.2  1.00  17671.64  1767164.00
916.3  1.00  17607.60  1760760.00
917.3  1.00  17555.45  1755545.00
918.4  1.00  17433.17  1743317.00
919.4  1.00  17362.00  1736200.00
920.5  1.00  17304.82  1730482.00
921.5  1.00  17252.61  1725261.00
922.6  1.00  17162.36  1716236.00
923.6  1.00  17101.79  1710179.00
924.7  1.00  17038.03  1703803.00
925.7  1.00  16957.53  1695753.00
926.7  1.00  16880.64  1688064.00
927.8  1.00  16821.76  1682176.00
928.8  1.00  16799.92  1679992.00
929.9  1.00  16747.98  1674798.00
930.9  1.00  16766.98  1676698.00
931.9  1.00  16765.18  1676518.00
932.9  1.00  16820.60  1682060.00
934.0  1.00  16712.28  1671228.00
935.0  1.00  16640.03  1664003.00
936.0  1.00  16551.41  1655141.00
937.0  1.00  16437.30  1643730.00
938.1  1.00  16353.50  1635350.00
939.1  1.00  16263.68  1626368.00
940.1  1.00  16207.71  1620771.00
941.1  1.00  16198.29  1619829.00
942.1  1.00  16185.10  1618510.00
943.1  1.00  16162.58  1616258.00
944.1  1.00  16166.16  1616616.00
945.2  1.00  16061.47  1606147.00
946.2  1.00  15998.11  1599811.00
947.2  1.00  15923.38  1592338.00
948.2  1.00  15890.95  1589095.00
949.2  1.00  15784.93  1578493.00
950.2  1.00  15694.79  1569479.00
951.2  1.00  15588.05  1558805.00
952.2  1.00  15528.93  1552893.00
953.2  1.00  15471.67  1547167.00
954.2  1.00  15432.78  1543278.00
955.2  1.00  15303.10  1530310.00
956.2  1.00  15183.26  1518326.00
957.2  1.00  15160.36  1516036.00
958.2  1.00  15094.22  1509422.00
959.2  1.00  15071.58  1507158.00
960.1  1.00  15038.87  1503887.00
961.1  1.00  15047.04  1504704.00
962.1  1.00  14993.38  1499338.00
963.1  1.00  14975.87  1497587.00
964.1  1.00  15009.24  1500924.00
965.1  1.00  15018.62  1501862.00
966.1  1.00  15000.93  1500093.00
967.0  1.00  15056.52  1505652.00
968.0  1.00  15036.30  1503630.00
969.0  1.00  15037.07  1503707.00
970.0  1.00  15071.10  1507110.00
971.0  1.00  15056.33  1505633.00
971.9  1.00  15080.56  1508056.00
972.9  1.00  15021.33  1502133.00
973.9  1.00  14977.08  1497708.00
974.9  1.00  14942.15  1494215.00
975.8  1.00  14932.98  1493298.00
976.8  1.00  14938.75  1493875.00
977.8  1.00  14849.84  1484984.00
978.8  1.00  14891.20  1489120.00
979.7  1.00  14844.02  1484402.00
981.4  1.00  15572.63  1557263.00
985.3  1.00  15454.68  1545468.00
989.3  1.00  15505.61  1550561.00
993.3  1.00  15648.47  1564847.00
997.2  1.00  15774.03  1577403.00
1001.2  1.00  15886.04  1588604.00
1005.2  1.00  16010.07  1601007.00
1009.1  1.00  16210.85  1621085.00
1013.1  1.00  16450.64  1645064.00
1017.1  1.00  16682.04  1668204.00
1021.0  1.00  16865.86  1686586.00
1025.0  1.00  17050.57  1705057.00
1029.0  1.00  17165.55  1716555.00
1032.9  1.00  17274.53  1727453.00
1036.9  1.00  17453.49  1745349.00
1040.9  1.00  17684.06  1768406.00
1044.8  1.00  17936.78  1793678.00
1048.8  1.00  18162.94  1816294.00
1052.7  1.00  18353.12  1835312.00
1056.7  1.00  18484.32  1848432.00
1060.7  1.00  18579.15  1857915.00
1064.6  1.00  18648.23  1864823.00
1068.6  1.00  18648.48  1864848.00
1072.5  1.00  18622.51  1862251.00
1076.5  1.00  18594.57  1859457.00
1080.4  1.00  18539.79  1853979.00
1084.4  1.00  18481.53  1848153.00
1088.3  1.00  18421.05  1842105.00
1092.3  1.00  18293.27  1829327.00
1096.2  1.00  18151.67  1815167.00
1100.2  1.00  18023.53  1802353.00
1104.1  1.00  17836.19  1783619.00
1108.1  1.00  17672.97  1767297.00
1112.0  1.00  17464.47  1746447.00
1116.0  1.00  17194.89  1719489.00
1119.9  1.00  16909.10  1690910.00
1123.9  1.00  16638.39  1663839.00
1127.8  1.00  16231.68  1623168.00
1131.8  1.00  15709.90  1570990.00
1135.7  1.00  15108.26  1510826.00
1139.6  1.00  14443.71  1444371.00
1143.6  1.00  13819.77  1381977.00
1147.5  1.00  13303.10  1330310.00
1151.4  1.00  12862.33  1286233.00
1155.4  1.00  12597.65  1259765.00
1159.3  1.00  12448.45  1244845.00
1163.2  1.00  12297.59  1229759.00
1167.2  1.00  12217.72  1221772.00
1171.1  1.00  12169.33  1216933.00
1175.0  1.00  12115.04  1211504.00
1179.0  1.00  12064.04  1206404.00
1182.9  1.00  12033.79  1203379.00
1186.8  1.00  11995.37  1199537.00
1190.7  1.00  11910.82  1191082.00
1194.7  1.00  11825.28  1182528.00
1198.6  1.00  11767.14  1176714.00
1202.5  1.00  11744.75  1174475.00
1206.4  1.00  11741.92  1174192.00
1210.3  1.00  11749.79  1174979.00
1214.2  1.00  11767.79  1176779.00
1218.2  1.00  11776.27  1177627.00
1222.1  1.00  11802.01  1180201.00
1226.0  1.00  11852.32  1185232.00
1229.9  1.00  11890.02  1189002.00
1233.8  1.00  11919.72  1191972.00
1237.7  1.00  11959.28  1195928.00
1241.6  1.00  11993.75  1199375.00
1245.5  1.00  11989.34  1198934.00
1249.4  1.00  11975.01  1197501.00
1253.3  1.00  11988.82  1198882.00
1257.2  1.00  12016.27  1201627.00
1261.1  1.00  12011.98  1201198.00
1265.0  1.00  11987.79  1198779.00
1268.9  1.00  11929.30  1192930.00
1272.8  1.00  11918.70  1191870.00
1276.7  1.00  11941.82  1194182.00
1280.6  1.00  11919.02  1191902.00
1284.5  1.00  11823.55  1182355.00
1288.4  1.00  11731.69  1173169.00
1292.3  1.00  11606.83  1160683.00
1296.2  1.00  11458.51  1145851.00
1300.1  1.00  11279.73  1127973.00
1303.9  1.00  11053.91  1105391.00
1307.8  1.00  10817.82  1081782.00
1311.7  1.00  10577.33  1057733.00
1315.6  1.00  10314.80  1031480.00
1319.5  1.00  10026.46  1002646.00
1323.3  1.00  9741.81  974181.00
1327.2  1.00  9457.43  945743.00
1331.1  1.00  9159.55  915955.00
1335.0  1.00  8855.52  885552.00
1338.8  1.00  8597.99  859799.00
1342.7  1.00  8373.79  837379.00
1346.5  1.00  8124.25  812425.00
1350.4  1.00  7902.54  790254.00
1354.3  1.00  7659.45  765945.00
1358.1  1.00  7406.26  740626.00
1362.0  1.00  7194.70  719470.00
1365.8  1.00  7002.44  700244.00
1369.7  1.00  6815.39  681539.00
1373.5  1.00  6549.92  654992.00
1377.4  1.00  6187.09  618709.00
1381.2  1.00  5765.42  576542.00
1385.1  1.00  5342.98  534298.00
1389.0  1.00  4920.42  492042.00
1392.8  1.00  4497.12  449712.00
1396.6  1.00  4112.28  411228.00
1400.5  1.00  3775.82  377582.00
1404.3  1.00  3508.40  350840.00
1408.2  1.00  3300.78  330078.00
1412.0  1.00  3140.80  314080.00
1415.8  1.00  3024.33  302433.00
1419.6  1.00  2927.19  292719.00
1423.5  1.00  2855.05  285505.00
1427.3  1.00  2802.48  280248.00
1431.1  1.00  2762.88  276288.00
1434.9  1.00  2723.28  272328.00
1438.8  1.00  2700.84  270084.00
1442.6  1.00  2683.43  268343.00
1446.4  1.00  2665.35  266535.00
1450.2  1.00  2655.72  265572.00
1454.0  1.00  2644.80  264480.00
1457.8  1.00  2651.08  265108.00
1461.6  1.00  2667.13  266713.00
1465.4  1.00  2680.79  268079.00
1469.2  1.00  2701.95  270195.00
1473.0  1.00  2733.16  273316.00
1476.8  1.00  2778.40  277840.00
1480.7  1.00  2832.80  283280.00
1484.4  1.00  2890.28  289028.00
1488.2  1.00  2957.92  295792.00
1492.0  1.00  3028.97  302897.00
1495.8  1.00  3098.55  309855.00
1499.6  1.00  3156.41  315641.00
1503.4  1.00  3201.67  320167.00
1507.2  1.00  3243.80  324380.00
1510.9  1.00  3283.32  328332.00
1514.7  1.00  3325.10  332510.00
1518.5  1.00  3376.93  337693.00
1522.3  1.00  3425.57  342557.00
1526.0  1.00  3467.53  346753.00
1529.8  1.00  3534.78  353478.00
1533.6  1.00  3601.73  360173.00
1537.3  1.00  3655.92  365592.00
1541.1  1.00  3713.44  371344.00
1544.8  1.00  3771.20  377120.00
1548.6  1.00  3818.35  381835.00
1552.4  1.00  3857.53  385753.00
1556.1  1.00  3905.00  390500.00
1559.9  1.00  3941.32  394132.00
1563.6  1.00  3980.87  398087.00
1567.3  1.00  4034.32  403432.00
1571.1  1.00  4070.74  407074.00
1574.8  1.00  4116.78  411678.00
1578.6  1.00  4161.49  416149.00
1582.3  1.00  4191.90  419190.00
1586.0  1.00  4212.97  421297.00
1589.8  1.00  4231.35  423135.00
1593.5  1.00  4254.74  425474.00
1597.2  1.00  4281.78  428178.00
1600.9  1.00  4303.78  430378.00
1604.7  1.00  4325.40  432540.00
1608.4  1.00  4349.24  434924.00
1612.1  1.00  4362.25  436225.00
1615.8  1.00  4376.51  437651.00
1619.5  1.00  4403.87  440387.00
1623.2  1.00  4419.23  441923.00
1626.9  1.00  4422.57  442257.00
1630.6  1.00  4432.63  443263.00
1634.3  1.00  4445.90  444590.00
1638.0  1.00  4439.45  443945.00
1641.7  1.00  4426.89  442689.00
1645.4  1.00  4416.93  441693.00
1649.1  1.00  4397.71  439771.00
1652.8  1.00  4381.59  438159.00
1656.4  1.00  4355.26  435526.00
1660.1  1.00  4334.27  433427.00
1663.8  1.00  4308.60  430860.00
1667.5  1.00  4285.35  428535.00
1671.1  1.00  4270.21  427021.00
1674.8  1.00  4237.51  423751.00
1678.5  1.00  4219.07  421907.00
1682.1  1.00  4208.34  420834.00
1685.8  1.00  4196.97  419697.00
1689.5  1.00  4170.70  417070.00
1693.1  1.00  4131.70  413170.00
1696.8  1.00  4091.34  409134.00
1700.4  1.00  4048.61  404861.00
1704.0  1.00  4005.01  400501.00
1707.7  1.00  3941.00  394100.00
1711.3  1.00  3865.32  386532.00
1715.0  1.00  3807.27  380727.00
1718.6  1.00  3759.32  375932.00
1722.2  1.00  3705.91  370591.00
1725.9  1.00  3654.09  365409.00
1729.5  1.00  3606.80  360680.00
1733.1  1.00  3568.11  356811.00
1736.7  1.00  3544.92  354492.00
1740.3  1.00  3506.28  350628.00
1744.0  1.00  3467.01  346701.00
1747.5  1.00  3419.13  341913.00
1751.2  1.00  3356.55  335655.00
1754.8  1.00  3307.20  330720.00
1758.4  1.00  3255.75  325575.00
1762.0  1.00  3197.28  319728.00
1765.5  1.00  3160.65  316065.00
1769.1  1.00  3140.80  314080.00
1772.7  1.00  3123.09  312309.00
1776.3  1.00  3099.41  309941.00
1779.9  1.00  3067.45  306745.00
1783.5  1.00  3043.79  304379.00
1787.0  1.00  3019.62  301962.00
1790.6  1.00  2995.62  299562.00
1794.2  1.00  2983.36  298336.00
1797.8  1.00  2975.70  297570.00
1801.3  1.00  2968.09  296809.00
1804.9  1.00  2952.25  295225.00
1808.4  1.00  2947.47  294747.00
1812.0  1.00  2934.01  293401.00
1815.5  1.00  2919.93  291993.00
1819.1  1.00  2900.73  290073.00
1822.6  1.00  2884.08  288408.00
1826.2  1.00  2870.43  287043.00
1829.7  1.00  2847.90  284790.00
1833.2  1.00  2814.32  281432.00
1836.8  1.00  2777.32  277732.00
1840.3  1.00  2747.36  274736.00
1843.8  1.00  2730.28  273028.00
1847.3  1.00  2726.54  272654.00
1850.8  1.00  2708.16  270816.00
1854.3  1.00  2673.39  267339.00
1857.8  1.00  2608.67  260867.00
1861.3  1.00  2519.41  251941.00
1864.8  1.00  2391.99  239199.00
1868.3  1.00  2225.54  222554.00
1871.8  1.00  2048.00  204800.00
1875.3  1.00  1887.34  188734.00
1878.8  1.00  1750.46  175046.00
1882.3  1.00  1621.43  162143.00
1885.8  1.00  1480.38  148038.00
1889.3  1.00  1365.14  136514.00
1892.7  1.00  1304.49  130449.00
1896.2  1.00  1250.89  125089.00
1899.7  1.00  1208.70  120870.00
1901.7  1.00  940.53  94053.00
1904.5  1.00  211.60  21160.00
1907.2  1.00  522.50  52250.00
1910.0  1.00  821.43  82143.00
1912.7  1.00  280.23  28023.00
1915.5  1.00  489.23  48923.00
1918.2  1.00  751.45  75145.00
1921.0  1.00  275.07  27507.00
1923.7  1.00  433.55  43355.00
1926.5  1.00  781.60  78160.00
1929.2  1.00  288.60  28860.00
1932.0  1.00  505.60  50560.00
1934.7  1.00  781.67  78167.00
1937.4  1.00  341.18  34118.00
1940.2  1.00  491.73  49173.00
1942.9  1.00  730.80  73080.00
1945.6  1.00  332.20  33220.00
1948.3  1.00  541.50  54150.00
1951.1  1.00  782.60  78260.00
1953.8  1.00  300.00  30000.00
1956.5  1.00  539.10  53910.00
1959.2  1.00  777.40  77740.00
1961.9  1.00  417.20  41720.00
1964.6  1.00  624.75  62475.00
1967.3  1.00  801.00  80100.00
1970.0  1.00  355.20  35520.00
1972.8  1.00  588.33  58833.00
1975.5  1.00  819.47  81947.00
1978.2  1.00  408.80  40880.00
1980.9  1.00  612.15  61215.00
1983.5  1.00  901.58  90158.00
1986.2  1.00  494.70  49470.00
1988.9  1.00  640.20  64020.00
1991.6  1.00  897.97  89797.00
1994.3  1.00  491.02  49102.00
1997.0  1.00  692.00  69200.00
1999.7  1.00  918.93  91893.00
2002.3  1.00  489.03  48903.00
2005.0  1.00  690.40  69040.00
2007.7  1.00  946.00  94600.00
2010.4  1.00  542.45  54245.00
2013.0  1.00  682.80  68280.00
2015.7  1.00  937.75  93775.00
2018.4  1.00  538.97  53897.00
2021.0  1.00  708.33  70833.00
2023.7  1.00  989.33  98933.00
2026.4  1.00  619.67  61967.00
2029.0  1.00  759.15  75915.00
2031.7  1.00  1014.00  101400.00
2034.3  1.00  619.67  61967.00
2037.0  1.00  760.05  76005.00
2039.6  1.00  1069.07  106907.00
2042.3  1.00  674.00  67400.00
2044.9  1.00  841.50  84150.00
2047.5  1.00  1037.85  103785.00
2050.2  1.00  644.00  64400.00
2052.8  1.00  868.00  86800.00
2055.4  1.00  1092.65  109265.00
2058.1  1.00  672.00  67200.00
2060.7  1.00  810.55  81055.00
2063.3  1.00  1058.93  105893.00
2065.9  1.00  642.08  64208.00
2068.6  1.00  809.58  80958.00
2071.2  1.00  1088.10  108810.00
2073.8  1.00  671.60  67160.00
2076.4  1.00  870.07  87007.00
2079.0  1.00  1095.90  109590.00
2081.6  1.00  675.20  67520.00
2084.2  1.00  874.72  87472.00
2086.8  1.00  1131.33  113133.00
2089.4  1.00  680.80  68080.00
2092.1  1.00  878.33  87833.00
2094.7  1.00  1158.25  115825.00
2097.2  1.00  736.67  73667.00
2099.8  1.00  882.47  88247.00
2102.4  1.00  1165.77  116577.00
2105.0  1.00  712.50  71250.00
2107.6  1.00  854.50  85450.00
2110.2  1.00  1165.08  116508.00
2112.8  1.00  744.47  74447.00
2115.3  1.00  923.73  92373.00
2117.9  1.00  1160.67  116067.00
2120.5  1.00  757.90  75790.00
2123.1  1.00  906.75  90675.00
2125.6  1.00  1171.33  117133.00
2128.2  1.00  760.93  76093.00
2130.8  1.00  936.00  93600.00
2133.3  1.00  1202.67  120267.00
2135.9  1.00  735.42  73542.00
2138.4  1.00  942.93  94293.00
2141.0  1.00  1204.72  120472.00
2143.6  1.00  820.87  82087.00
2146.1  1.00  910.88  91088.00
2148.7  1.00  1204.03  120403.00
2151.2  1.00  733.33  73333.00
2153.8  1.00  912.43  91243.00
2156.3  1.00  1210.87  121087.00
2158.8  1.00  767.87  76787.00
2161.4  1.00  972.95  97295.00
2163.9  1.00  1238.30  123830.00
2166.4  1.00  739.17  73917.00
2169.0  1.00  916.57  91657.00
2171.5  1.00  1241.80  124180.00
2174.0  1.00  803.25  80325.00
2176.5  1.00  926.90  92690.00
2179.1  1.00  1174.55  117455.00
2181.6  1.00  699.58  69958.00
2184.1  1.00  893.20  89320.00
2186.6  1.00  1223.95  122395.00
2189.1  1.00  738.30  73830.00
2191.6  1.00  882.00  88200.00
2194.1  1.00  1096.15  109615.00
2196.6  1.00  713.30  71330.00
2199.2  1.00  872.08  87208.00
2201.7  1.00  1146.13  114613.00
2204.1  1.00  659.70  65970.00
2206.6  1.00  895.20  89520.00
2209.1  1.00  1211.20  121120.00
2211.6  1.00  647.13  64713.00
2214.1  1.00  836.37  83637.00
2216.6  1.00  1177.48  117748.00
2219.1  1.00  645.72  64572.00
2221.6  1.00  837.47  83747.00
2224.0  1.00  1143.00  114300.00
2226.5  1.00  570.75  57075.00
2229.0  1.00  799.40  79940.00
2231.5  1.00  1110.70  111070.00
2233.9  1.00  577.25  57725.00
2236.4  1.00  810.60  81060.00
2238.9  1.00  1162.50  116250.00
2241.3  1.00  544.13  54413.00
2243.8  1.00  777.33  77733.00
2246.2  1.00  1124.23  112423.00
2248.7  1.00  501.37  50137.00
2251.2  1.00  691.80  69180.00
2253.6  1.00  1036.80  103680.00
2256.1  1.00  537.60  53760.00
2258.5  1.00  768.33  76833.00
2260.9  1.00  1073.80  107380.00
2263.4  1.00  460.60  46060.00
2265.8  1.00  577.00  57700.00
2268.3  1.00  923.60  92360.00
2270.7  1.00  460.60  46060.00
2273.1  1.00  728.65  72865.00
2275.6  1.00  960.00  96000.00
2278.0  1.00  345.90  34590.00
2280.4  1.00  577.25  57725.00
2282.8  1.00  1006.63  100663.00
2285.3  1.00  427.72  42772.00
2287.7  1.00  624.80  62480.00
2290.1  1.00  909.27  90927.00
2292.5  1.00  357.15  35715.00
2294.9  1.00  632.27  63227.00
2297.3  1.00  909.65  90965.00
2299.7  1.00  315.87  31587.00
2302.1  1.00  510.68  51068.00
2304.5  1.00  823.20  82320.00
2306.9  1.00  235.20  23520.00
2309.3  1.00  431.02  43102.00
2311.7  1.00  785.00  78500.00
2314.1  1.00  236.30  23630.00
2316.5  1.00  472.80  47280.00
2318.9  1.00  827.75  82775.00
2321.3  1.00  277.32  27732.00
2323.7  1.00  479.20  47920.00
2326.1  1.00  806.00  80600.00
2328.4  1.00  162.73  16273.00
2330.8  1.00  449.90  44990.00
2333.2  1.00  864.85  86485.00
2335.6  1.00  207.58  20758.00
2337.9  1.00  375.60  37560.00
2340.3  1.00  797.68  79768.00
2342.7  1.00  211.58  21158.00
2345.0  1.00  424.67  42467.00
2347.4  1.00  765.00  76500.00
2349.7  1.00  128.15  12815.00
2352.1  1.00  385.95  38595.00
2354.4  1.00  773.70  77370.00
2356.8  1.00  215.83  21583.00
2359.2  1.00  390.00  39000.00
2361.5  1.00  785.40  78540.00
2363.8  1.00  175.67  17567.00
2366.2  1.00  353.07  35307.00
2368.5  1.00  712.00  71200.00
2370.9  1.00  44.73  4473.00
2373.2  1.00  314.77  31477.00
2375.5  1.00  678.75  67875.00
2377.9  1.00  45.58  4558.00
2380.2  1.00  320.72  32072.00
2382.5  1.00  735.20  73520.00
2384.8  1.00  46.40  4640.00
2387.2  1.00  281.30  28130.00
2389.5  1.00  708.25  70825.00
2391.8  1.00  0.00  0.00
2394.1  1.00  239.92  23992.00
2396.4  1.00  677.37  67737.00
2398.7  1.00  48.72  4872.00
2401.0  1.00  197.80  19780.00
2403.3  1.00  697.20  69720.00
2405.6  1.00  49.98  4998.00
2407.9  1.00  300.60  30060.00
2410.2  1.00  601.60  60160.00
2412.5  1.00  0.00  0.00
2414.8  1.00  205.40  20540.00
2417.1  1.00  671.02  67102.00
2419.4  1.00  0.00  0.00
2421.7  1.00  157.70  15770.00
2424.0  1.00  634.00  63400.00
2426.2  1.00  0.00  0.00
2428.5  1.00  54.08  5408.00
2430.8  1.00  599.50  59950.00
2433.1  1.00  0.00  0.00
2435.4  1.00  167.85  16785.00
2437.6  1.00  615.45  61545.00
2439.9  1.00  0.00  0.00
2442.2  1.00  113.77  11377.00
2444.4  1.00  574.33  57433.00
2446.7  1.00  0.00  0.00
2448.9  1.00  118.43  11843.00
2451.2  1.00  536.40  53640.00
2453.4  1.00  0.00  0.00
2455.7  1.00  0.00  0.00
2457.9  1.00  610.50  61050.00
2460.2  1.00  0.00  0.00
2462.4  1.00  124.80  12480.00
2464.7  1.00  630.83  63083.00
2466.9  1.00  0.00  0.00
2469.2  1.00  64.82  6482.00
2471.4  1.00  656.50  65650.00
2473.6  1.00  0.00  0.00
2475.9  1.00  67.73  6773.00
2478.1  1.00  546.53  54653.00
2480.3  1.00  -69.62  -6962.00
2482.5  1.00  0.00  0.00
2484.8  1.00  655.35  65535.00
2487.0  1.00  0.00  0.00
2489.2  1.00  0.00  0.00
2491.4  1.00  614.80  61480.00
2493.6  1.00  -156.77  -15677.00
2495.8  1.00  0.00  0.00
2498.0  1.00  486.40  48640.00
2500.2  1.00  -168.50  -16850.00
2502.4  1.00  0.00  0.00
2504.6  1.00  657.30  65730.00
2506.8  1.00  97.42  9742.00
