/*** Spectra Vista SIG Data ***/
name= GT1.sig
comm= Averaged Ref/Tar of files: GD4T1,GD4T2,GD4T3
data=
346.4  1.00  76.02  7601.67
347.9  1.00  77.81  7781.00
349.5  1.00  79.04  7904.00
351.1  1.00  81.74  8174.33
352.6  1.00  80.75  8075.00
354.2  1.00  83.78  8377.67
355.7  1.00  87.55  8755.33
357.3  1.00  90.62  9062.00
358.8  1.00  92.97  9297.00
360.4  1.00  94.97  9497.33
361.9  1.00  95.88  9588.33
363.5  1.00  96.26  9625.67
365.1  1.00  94.55  9455.00
366.6  1.00  97.82  9782.33
368.2  1.00  95.35  9535.33
369.7  1.00  92.94  9294.33
371.3  1.00  99.22  9921.67
372.8  1.00  96.50  9650.33
374.4  1.00  98.79  9879.00
375.9  1.00  100.40  10040.33
377.4  1.00  100.40  10039.67
379.0  1.00  98.23  9823.33
380.5  1.00  99.09  9909.33
382.1  1.00  96.13  9613.33
383.6  1.00  97.52  9752.33
385.2  1.00  99.18  9918.33
386.7  1.00  98.73  9873.33
388.3  1.00  100.19  10018.67
389.8  1.00  103.94  10394.33
391.3  1.00  109.36  10935.67
392.9  1.00  111.34  11133.67
394.4  1.00  117.12  11712.00
395.9  1.00  124.97  12497.33
397.5  1.00  132.65  13264.67
399.0  1.00  132.46  13246.00
400.6  1.00  129.24  12923.67
402.1  1.00  125.04  12504.33
403.6  1.00  123.07  12307.00
405.1  1.00  123.39  12339.00
406.7  1.00  127.83  12783.00
408.2  1.00  130.09  13008.67
409.7  1.00  133.95  13395.33
411.3  1.00  141.52  14152.33
412.8  1.00  144.89  14488.67
414.3  1.00  150.93  15093.00
415.8  1.00  157.67  15766.67
417.4  1.00  161.92  16192.00
418.9  1.00  166.30  16630.33
420.4  1.00  168.00  16799.67
421.9  1.00  170.69  17069.00
423.5  1.00  172.01  17201.33
425.0  1.00  172.01  17200.67
426.5  1.00  172.57  17257.33
428.0  1.00  178.02  17802.33
429.5  1.00  180.65  18065.00
431.1  1.00  184.73  18473.00
432.6  1.00  188.54  18853.67
434.1  1.00  195.07  19507.00
435.6  1.00  201.11  20111.33
437.1  1.00  206.31  20631.00
438.6  1.00  211.83  21183.00
440.1  1.00  217.15  21715.00
441.6  1.00  226.15  22614.67
443.1  1.00  233.96  23396.00
444.7  1.00  243.31  24331.33
446.2  1.00  252.74  25274.00
447.7  1.00  261.35  26134.67
449.2  1.00  272.74  27273.67
450.7  1.00  280.11  28010.67
452.2  1.00  285.58  28558.00
453.7  1.00  289.44  28943.67
455.2  1.00  298.45  29845.00
456.7  1.00  305.89  30589.00
458.2  1.00  315.60  31560.00
459.7  1.00  325.27  32526.67
461.2  1.00  335.35  33535.33
462.7  1.00  343.56  34356.33
464.2  1.00  353.56  35355.67
465.7  1.00  360.73  36073.33
467.2  1.00  371.27  37127.00
468.7  1.00  380.53  38053.33
470.2  1.00  387.45  38745.33
471.7  1.00  400.27  40027.00
473.2  1.00  415.99  41599.00
474.6  1.00  425.09  42508.67
476.1  1.00  426.40  42640.33
477.6  1.00  424.13  42412.67
479.1  1.00  424.92  42492.00
480.6  1.00  430.42  43041.67
482.1  1.00  436.28  43628.00
483.6  1.00  445.29  44529.00
485.1  1.00  456.50  45650.33
486.6  1.00  471.62  47162.33
488.0  1.00  484.69  48468.67
489.5  1.00  505.17  50517.00
491.0  1.00  523.85  52385.00
492.5  1.00  546.05  54605.00
494.0  1.00  572.69  57268.67
495.4  1.00  603.13  60313.00
496.9  1.00  633.60  63360.00
498.4  1.00  668.20  66820.00
499.9  1.00  707.73  70772.67
501.4  1.00  749.65  74965.33
502.8  1.00  795.97  79597.33
504.3  1.00  844.08  84408.00
505.8  1.00  897.18  89718.00
507.2  1.00  950.72  95072.33
508.7  1.00  1006.73  100672.67
510.2  1.00  1063.49  106348.67
511.6  1.00  1125.47  112547.00
513.1  1.00  1191.19  119118.67
514.6  1.00  1262.48  126248.00
516.0  1.00  1333.55  133355.00
517.5  1.00  1410.53  141052.67
519.0  1.00  1494.29  149428.67
520.5  1.00  1576.04  157604.00
521.9  1.00  1665.50  166549.67
523.4  1.00  1757.48  175747.67
524.8  1.00  1848.64  184864.00
526.3  1.00  1943.10  194310.33
527.8  1.00  2034.89  203489.33
529.2  1.00  2117.54  211753.67
530.7  1.00  2204.08  220407.67
532.1  1.00  2283.83  228383.33
533.6  1.00  2364.53  236452.67
535.0  1.00  2444.91  244490.67
536.5  1.00  2518.36  251836.33
538.0  1.00  2591.21  259121.00
539.4  1.00  2660.08  266008.33
540.9  1.00  2744.03  274403.33
542.3  1.00  2824.72  282471.67
543.8  1.00  2886.10  288610.00
545.2  1.00  2917.44  291744.00
546.6  1.00  2937.77  293776.67
548.1  1.00  2961.36  296136.33
549.5  1.00  2981.89  298189.33
551.0  1.00  2998.99  299898.67
552.4  1.00  3020.25  302024.67
553.9  1.00  3032.26  303226.00
555.3  1.00  3043.87  304387.33
556.8  1.00  3061.23  306122.67
558.2  1.00  3075.52  307552.33
559.6  1.00  3089.29  308929.33
561.1  1.00  3108.74  310873.67
562.5  1.00  3124.34  312434.00
564.0  1.00  3150.03  315002.67
565.4  1.00  3165.97  316596.67
566.8  1.00  3184.17  318417.00
568.3  1.00  3197.63  319762.67
569.7  1.00  3209.41  320941.33
571.1  1.00  3214.38  321438.00
572.6  1.00  3217.86  321785.67
574.0  1.00  3220.36  322036.00
575.4  1.00  3219.19  321918.67
576.9  1.00  3217.37  321736.67
578.3  1.00  3212.50  321249.67
579.7  1.00  3209.15  320915.00
581.1  1.00  3197.90  319790.33
582.6  1.00  3192.99  319299.00
584.0  1.00  3185.65  318565.33
585.4  1.00  3193.94  319393.67
586.8  1.00  3216.81  321680.67
588.3  1.00  3245.27  324527.00
589.7  1.00  3269.14  326913.67
591.1  1.00  3274.34  327434.33
592.5  1.00  3268.41  326840.67
594.0  1.00  3256.89  325688.67
595.4  1.00  3241.52  324151.67
596.8  1.00  3227.51  322751.33
598.2  1.00  3215.36  321535.67
599.6  1.00  3197.04  319704.33
601.0  1.00  3186.96  318696.00
602.4  1.00  3176.07  317606.67
603.9  1.00  3165.79  316579.33
605.3  1.00  3154.53  315453.00
606.7  1.00  3137.40  313740.00
608.1  1.00  3127.05  312704.67
609.5  1.00  3114.81  311481.00
610.9  1.00  3105.00  310499.67
612.3  1.00  3089.48  308948.00
613.7  1.00  3082.65  308265.33
615.1  1.00  3062.99  306299.00
616.5  1.00  3045.54  304554.00
617.9  1.00  3044.00  304400.33
619.3  1.00  3042.65  304265.00
620.7  1.00  3052.68  305267.67
622.1  1.00  3108.76  310876.33
623.5  1.00  3198.07  319807.00
624.9  1.00  3300.39  330039.33
626.3  1.00  3383.28  338327.67
627.7  1.00  3370.50  337050.00
629.1  1.00  3322.60  332260.33
630.5  1.00  3295.50  329549.67
631.9  1.00  3282.56  328256.33
633.3  1.00  3254.68  325468.00
634.7  1.00  3206.18  320618.00
636.1  1.00  3132.56  313256.33
637.5  1.00  3057.02  305702.00
638.9  1.00  2973.70  297369.67
640.2  1.00  2888.53  288852.67
641.6  1.00  2798.48  279848.33
643.0  1.00  2696.26  269626.33
644.4  1.00  2593.31  259330.67
645.8  1.00  2484.84  248484.00
647.2  1.00  2408.41  240841.33
648.5  1.00  2335.96  233595.67
649.9  1.00  2263.08  226308.00
651.3  1.00  2196.06  219606.00
652.7  1.00  2144.21  214421.00
654.1  1.00  2109.53  210953.00
655.5  1.00  2067.06  206706.33
656.8  1.00  2016.89  201689.00
658.2  1.00  1986.83  198683.33
659.6  1.00  1953.08  195308.00
660.9  1.00  1911.99  191199.33
662.3  1.00  1868.23  186822.67
663.7  1.00  1822.66  182266.00
665.0  1.00  1774.29  177429.00
666.4  1.00  1732.95  173295.00
667.8  1.00  1702.50  170250.00
669.1  1.00  1673.08  167308.00
670.5  1.00  1653.74  165374.33
671.9  1.00  1643.29  164329.00
673.2  1.00  1641.86  164186.33
674.6  1.00  1647.70  164770.00
676.0  1.00  1664.63  166463.33
677.3  1.00  1689.13  168913.00
678.7  1.00  1733.58  173358.00
680.0  1.00  1799.26  179926.00
681.4  1.00  1888.42  188842.33
682.8  1.00  2008.52  200852.33
684.1  1.00  2162.47  216247.33
685.5  1.00  2360.21  236021.33
686.8  1.00  2605.96  260596.00
688.2  1.00  2891.22  289122.33
689.5  1.00  3211.44  321144.33
690.9  1.00  3569.16  356916.33
692.2  1.00  3953.35  395335.00
693.6  1.00  4363.78  436377.67
694.9  1.00  4786.33  478633.33
696.2  1.00  5232.79  523279.00
697.6  1.00  5683.06  568306.00
698.9  1.00  6128.67  612867.33
700.3  1.00  6566.06  656606.33
701.6  1.00  6996.95  699695.00
703.0  1.00  7414.37  741436.67
704.3  1.00  7804.98  780498.33
705.6  1.00  8155.54  815554.00
707.0  1.00  8494.39  849438.67
708.3  1.00  8801.67  880167.33
709.6  1.00  9083.48  908347.67
711.0  1.00  9348.96  934895.67
712.3  1.00  9589.31  958931.00
713.6  1.00  9832.34  983234.00
714.9  1.00  10049.99  1004998.67
716.3  1.00  10274.61  1027461.00
717.6  1.00  10494.47  1049446.67
718.9  1.00  10676.92  1067692.00
720.2  1.00  10821.55  1082155.33
721.6  1.00  10951.77  1095177.00
722.9  1.00  11053.28  1105328.00
724.2  1.00  11120.92  1112092.00
725.5  1.00  11197.20  1119719.67
726.8  1.00  11266.55  1126655.33
728.1  1.00  11344.98  1134498.33
729.5  1.00  11399.91  1139991.00
730.8  1.00  11452.79  1145278.67
732.1  1.00  11487.51  1148751.00
733.4  1.00  11530.60  1153059.67
734.7  1.00  11571.75  1157175.00
736.0  1.00  11617.98  1161798.00
737.3  1.00  11650.22  1165021.67
738.6  1.00  11717.31  1171731.00
739.9  1.00  11799.61  1179961.33
741.2  1.00  11881.87  1188187.00
742.5  1.00  11994.72  1199472.00
743.8  1.00  12156.95  1215695.33
745.1  1.00  12386.83  1238683.33
746.4  1.00  12674.39  1267439.00
747.7  1.00  12989.37  1298937.33
749.0  1.00  13309.65  1330965.33
750.3  1.00  13525.38  1352538.00
751.6  1.00  13558.82  1355881.67
752.9  1.00  13460.32  1346032.00
754.2  1.00  13331.18  1333118.00
755.4  1.00  13190.34  1319033.67
756.7  1.00  13139.49  1313949.00
758.0  1.00  13155.24  1315524.33
759.3  1.00  13257.07  1325707.00
760.6  1.00  13373.15  1337315.33
761.9  1.00  13506.67  1350667.00
763.1  1.00  13593.25  1359324.67
764.4  1.00  13683.00  1368300.33
765.7  1.00  13755.73  1375573.33
767.0  1.00  13812.38  1381237.67
768.2  1.00  13868.96  1386896.00
769.5  1.00  13924.72  1392471.67
770.8  1.00  14001.74  1400173.67
772.0  1.00  14037.73  1403772.67
773.3  1.00  14079.11  1407911.33
774.6  1.00  14133.98  1413398.33
775.8  1.00  14181.07  1418107.33
777.1  1.00  14197.01  1419701.33
778.4  1.00  14197.85  1419785.00
779.6  1.00  14206.16  1420616.33
780.9  1.00  14195.73  1419573.33
782.1  1.00  14158.73  1415872.67
783.4  1.00  14170.90  1417090.00
784.6  1.00  14191.34  1419134.00
785.9  1.00  14288.65  1428865.00
787.1  1.00  14484.04  1448403.67
788.4  1.00  14678.37  1467836.67
789.6  1.00  14744.08  1474408.33
790.9  1.00  14675.77  1467577.00
792.1  1.00  14537.52  1453751.67
793.4  1.00  14391.88  1439188.00
794.6  1.00  14296.11  1429610.67
795.8  1.00  14221.11  1422110.67
797.1  1.00  14129.74  1412973.67
798.3  1.00  14068.67  1406867.00
799.5  1.00  14031.81  1403181.00
800.8  1.00  14004.55  1400455.33
802.0  1.00  13961.68  1396168.00
803.2  1.00  13922.20  1392220.33
804.5  1.00  13900.35  1390035.33
805.7  1.00  13867.79  1386779.33
806.9  1.00  13831.12  1383111.67
808.1  1.00  13789.62  1378962.00
809.4  1.00  13763.45  1376344.67
810.6  1.00  13726.44  1372644.00
811.8  1.00  13709.88  1370988.00
813.0  1.00  13698.40  1369840.33
814.2  1.00  13701.22  1370122.00
815.4  1.00  13738.60  1373860.33
816.6  1.00  13755.49  1375549.00
817.9  1.00  13775.05  1377505.33
819.1  1.00  13752.01  1375201.33
820.3  1.00  13702.51  1370251.33
821.5  1.00  13663.77  1366377.33
822.7  1.00  13628.39  1362839.00
823.9  1.00  13603.41  1360341.33
825.1  1.00  13579.67  1357967.00
826.3  1.00  13553.91  1355391.33
827.5  1.00  13535.18  1353517.67
828.7  1.00  13511.58  1351158.33
829.9  1.00  13477.29  1347729.00
831.0  1.00  13463.96  1346396.33
832.2  1.00  13453.94  1345394.00
833.4  1.00  13440.76  1344076.33
834.6  1.00  13440.31  1344031.33
835.8  1.00  13431.92  1343191.67
837.0  1.00  13437.36  1343735.67
838.1  1.00  13466.84  1346684.00
839.3  1.00  13486.33  1348632.67
840.5  1.00  13518.39  1351838.67
841.7  1.00  13543.77  1354377.33
842.9  1.00  13567.92  1356792.00
844.0  1.00  13601.64  1360164.00
845.2  1.00  13645.67  1364566.67
846.4  1.00  13684.83  1368483.33
847.5  1.00  13748.13  1374812.67
848.7  1.00  13805.57  1380556.67
849.9  1.00  13876.21  1387620.67
851.0  1.00  13919.27  1391926.67
852.2  1.00  13938.49  1393848.67
853.3  1.00  13940.71  1394071.00
854.5  1.00  13935.71  1393570.67
855.6  1.00  13933.32  1393332.00
856.8  1.00  13939.76  1393976.00
857.9  1.00  13930.59  1393058.67
859.1  1.00  13958.68  1395868.00
860.2  1.00  13955.42  1395541.67
861.4  1.00  13962.23  1396223.00
862.5  1.00  13980.49  1398049.00
863.7  1.00  14003.23  1400323.00
864.8  1.00  14014.21  1401421.00
865.9  1.00  13993.41  1399341.33
867.1  1.00  14005.88  1400587.67
868.2  1.00  14011.14  1401114.33
869.3  1.00  14011.70  1401170.00
870.5  1.00  13980.28  1398027.67
871.6  1.00  13972.62  1397262.33
872.7  1.00  13982.53  1398253.33
873.9  1.00  13977.94  1397794.33
875.0  1.00  13960.49  1396049.33
876.1  1.00  13942.55  1394255.00
877.2  1.00  13928.27  1392827.33
878.3  1.00  13926.54  1392654.00
879.4  1.00  13929.09  1392908.67
880.5  1.00  13928.62  1392862.00
881.7  1.00  13907.57  1390757.33
882.8  1.00  13918.40  1391839.67
883.9  1.00  13911.58  1391158.33
885.0  1.00  13885.46  1388546.00
886.1  1.00  13862.07  1386206.67
887.2  1.00  13816.03  1381603.00
888.3  1.00  13759.13  1375912.67
889.4  1.00  13706.19  1370619.00
890.5  1.00  13660.59  1366058.67
891.6  1.00  13619.16  1361916.33
892.7  1.00  13600.20  1360020.33
893.8  1.00  13575.41  1357541.33
894.9  1.00  13549.53  1354953.00
896.0  1.00  13519.68  1351968.33
897.0  1.00  13517.61  1351761.33
898.1  1.00  13506.50  1350650.33
899.2  1.00  13473.88  1347388.33
900.3  1.00  13435.84  1343584.00
901.4  1.00  13396.48  1339647.67
902.4  1.00  13376.06  1337606.00
903.5  1.00  13333.32  1333331.67
904.6  1.00  13311.76  1331176.33
905.7  1.00  13282.04  1328204.00
906.7  1.00  13242.99  1324298.67
907.8  1.00  13227.13  1322713.00
908.9  1.00  13177.58  1317758.00
909.9  1.00  13142.93  1314293.00
911.0  1.00  13091.05  1309105.00
912.1  1.00  13043.18  1304317.67
913.1  1.00  12996.81  1299681.33
914.2  1.00  12928.25  1292825.00
915.2  1.00  12878.44  1287844.00
916.3  1.00  12839.88  1283988.00
917.3  1.00  12787.75  1278774.67
918.4  1.00  12714.68  1271468.33
919.4  1.00  12658.39  1265839.33
920.5  1.00  12599.16  1259915.67
921.5  1.00  12549.38  1254937.67
922.6  1.00  12483.12  1248312.33
923.6  1.00  12431.15  1243115.00
924.7  1.00  12381.85  1238185.00
925.7  1.00  12313.07  1231306.67
926.7  1.00  12265.19  1226519.00
927.8  1.00  12211.44  1221143.67
928.8  1.00  12176.21  1217621.33
929.9  1.00  12137.80  1213780.00
930.9  1.00  12120.06  1212006.00
931.9  1.00  12089.13  1208913.33
932.9  1.00  12096.25  1209625.00
934.0  1.00  12019.81  1201981.33
935.0  1.00  11950.60  1195059.67
936.0  1.00  11861.58  1186158.33
937.0  1.00  11763.36  1176336.00
938.1  1.00  11674.25  1167424.67
939.1  1.00  11584.87  1158487.00
940.1  1.00  11533.00  1153300.00
941.1  1.00  11506.94  1150694.00
942.1  1.00  11496.87  1149686.67
943.1  1.00  11454.83  1145483.33
944.1  1.00  11415.75  1141574.67
945.2  1.00  11357.78  1135778.00
946.2  1.00  11289.27  1128926.67
947.2  1.00  11235.89  1123589.33
948.2  1.00  11174.43  1117442.67
949.2  1.00  11102.49  1110248.67
950.2  1.00  11030.19  1103018.67
951.2  1.00  10960.37  1096037.33
952.2  1.00  10887.88  1088787.67
953.2  1.00  10818.54  1081853.67
954.2  1.00  10764.56  1076455.67
955.2  1.00  10680.01  1068001.00
956.2  1.00  10607.83  1060782.67
957.2  1.00  10547.55  1054754.67
958.2  1.00  10485.72  1048572.00
959.2  1.00  10477.29  1047729.00
960.1  1.00  10427.59  1042758.67
961.1  1.00  10422.45  1042245.00
962.1  1.00  10384.69  1038469.00
963.1  1.00  10361.74  1036174.00
964.1  1.00  10361.03  1036103.33
965.1  1.00  10358.55  1035855.00
966.1  1.00  10350.36  1035035.67
967.0  1.00  10387.43  1038743.33
968.0  1.00  10371.58  1037157.67
969.0  1.00  10380.43  1038042.67
970.0  1.00  10387.32  1038732.00
971.0  1.00  10411.23  1041122.67
971.9  1.00  10424.76  1042476.33
972.9  1.00  10471.00  1047100.00
973.9  1.00  10514.77  1051477.00
974.9  1.00  10552.15  1055215.33
975.8  1.00  10616.95  1061694.67
976.8  1.00  10661.11  1066111.33
977.8  1.00  10699.87  1069987.33
978.8  1.00  10780.23  1078023.00
979.7  1.00  10837.21  1083720.67
980.7  1.00  10895.61  1089561.00
981.7  1.00  11020.10  1102009.67
982.6  1.00  11071.10  1107110.33
983.6  1.00  11305.50  1130550.00
984.6  1.00  11431.47  1143147.33
985.5  1.00  11666.28  1166627.67
986.5  1.00  11930.53  1193052.67
987.5  1.00  12220.66  1222066.33
988.4  1.00  12569.26  1256926.00
989.4  1.00  13024.71  1302471.33
990.4  1.00  13400.05  1340004.67
991.3  1.00  13747.41  1374741.33
992.3  1.00  14437.68  1443768.00
993.2  1.00  14705.35  1470535.33
994.2  1.00  15366.29  1536629.33
995.2  1.00  15816.47  1581647.00
996.1  1.00  15954.02  1595401.67
997.1  1.00  15981.75  1598174.67
998.0  1.00  15942.32  1594232.00
999.0  1.00  16332.23  1633223.00
1000.0  1.00  16175.65  1617564.67
1000.9  1.00  16474.12  1647411.67
1001.9  1.00  16568.78  1656877.67
1002.8  1.00  16168.18  1616817.67
1003.8  1.00  16729.15  1672914.67
1004.8  1.00  16763.62  1676362.33
961.5  1.00  13277.53  1327752.67
965.5  1.00  13306.18  1330617.67
969.5  1.00  13254.19  1325419.00
973.4  1.00  13132.73  1313272.67
977.4  1.00  13171.72  1317171.67
981.4  1.00  13315.18  1331518.00
985.3  1.00  13400.46  1340046.33
989.3  1.00  13476.71  1347671.33
993.3  1.00  13556.02  1355602.33
997.2  1.00  13579.87  1357986.67
1001.2  1.00  13653.68  1365368.33
1005.2  1.00  13789.27  1378926.67
1009.1  1.00  13988.34  1398834.00
1013.1  1.00  14231.31  1423131.33
1017.1  1.00  14456.35  1445635.33
1021.0  1.00  14643.61  1464361.33
1025.0  1.00  14832.63  1483263.33
1029.0  1.00  14976.09  1497608.67
1032.9  1.00  15124.76  1512476.33
1036.9  1.00  15314.12  1531412.33
1040.9  1.00  15534.03  1553403.33
1044.8  1.00  15771.05  1577105.33
1048.8  1.00  15967.27  1596727.33
1052.7  1.00  16129.72  1612972.00
1056.7  1.00  16233.45  1623344.67
1060.7  1.00  16313.17  1631317.33
1064.6  1.00  16378.83  1637882.67
1068.6  1.00  16362.36  1636236.33
1072.5  1.00  16332.76  1633275.67
1076.5  1.00  16302.69  1630269.33
1080.4  1.00  16245.57  1624557.33
1084.4  1.00  16185.19  1618519.00
1088.3  1.00  16115.61  1611561.33
1092.3  1.00  15989.54  1598954.00
1096.2  1.00  15835.38  1583538.00
1100.2  1.00  15691.64  1569164.00
1104.1  1.00  15505.34  1550534.33
1108.1  1.00  15327.27  1532726.67
1112.0  1.00  15140.24  1514023.67
1116.0  1.00  14904.44  1490443.67
1119.9  1.00  14642.76  1464275.67
1123.9  1.00  14386.96  1438696.00
1127.8  1.00  13990.40  1399040.00
1131.8  1.00  13496.29  1349629.00
1135.7  1.00  12937.65  1293764.67
1139.6  1.00  12328.33  1232833.00
1143.6  1.00  11736.06  1173606.33
1147.5  1.00  11226.01  1122601.33
1151.4  1.00  10801.48  1080148.33
1155.4  1.00  10529.65  1052965.33
1159.3  1.00  10356.54  1035653.67
1163.2  1.00  10197.39  1019738.67
1167.2  1.00  10099.62  1009962.00
1171.1  1.00  10040.01  1004001.33
1175.0  1.00  9977.77  997777.00
1179.0  1.00  9917.81  991780.67
1182.9  1.00  9879.60  987959.67
1186.8  1.00  9838.16  983816.00
1190.7  1.00  9749.12  974912.00
1194.7  1.00  9656.79  965679.00
1198.6  1.00  9603.83  960383.00
1202.5  1.00  9580.24  958024.33
1206.4  1.00  9569.10  956910.33
1210.3  1.00  9570.66  957066.00
1214.2  1.00  9594.31  959431.00
1218.2  1.00  9617.62  961761.67
1222.1  1.00  9644.88  964487.67
1226.0  1.00  9684.45  968445.33
1229.9  1.00  9718.08  971808.00
1233.8  1.00  9742.63  974262.67
1237.7  1.00  9775.42  977542.00
1241.6  1.00  9799.49  979948.67
1245.5  1.00  9805.16  980516.00
1249.4  1.00  9806.63  980663.00
1253.3  1.00  9801.66  980166.00
1257.2  1.00  9807.06  980705.67
1261.1  1.00  9791.93  979192.67
1265.0  1.00  9761.93  976192.67
1268.9  1.00  9711.56  971156.33
1272.8  1.00  9694.75  969475.00
1276.7  1.00  9697.27  969727.00
1280.6  1.00  9657.85  965784.67
1284.5  1.00  9578.75  957874.67
1288.4  1.00  9504.24  950423.67
1292.3  1.00  9383.00  938300.00
1296.2  1.00  9241.17  924117.00
1300.1  1.00  9070.38  907038.33
1303.9  1.00  8875.19  887519.33
1307.8  1.00  8658.61  865861.33
1311.7  1.00  8430.25  843025.00
1315.6  1.00  8198.77  819877.00
1319.5  1.00  7942.95  794294.67
1323.3  1.00  7687.99  768799.00
1327.2  1.00  7434.88  743488.33
1331.1  1.00  7182.05  718205.00
1335.0  1.00  6929.19  692919.33
1338.8  1.00  6703.89  670389.00
1342.7  1.00  6505.71  650571.00
1346.5  1.00  6286.00  628599.67
1350.4  1.00  6095.96  609596.00
1354.3  1.00  5900.55  590055.00
1358.1  1.00  5700.90  570090.33
1362.0  1.00  5512.17  551217.33
1365.8  1.00  5330.29  533028.67
1369.7  1.00  5162.74  516274.00
1373.5  1.00  4935.81  493580.67
1377.4  1.00  4640.96  464095.67
1381.2  1.00  4299.72  429972.00
1385.1  1.00  3965.15  396514.67
1389.0  1.00  3622.98  362298.00
1392.8  1.00  3275.38  327538.33
1396.6  1.00  2974.49  297449.00
1400.5  1.00  2708.95  270895.33
1404.3  1.00  2489.99  248999.33
1408.2  1.00  2323.56  232355.67
1412.0  1.00  2188.09  218809.33
1415.8  1.00  2087.03  208703.33
1419.6  1.00  2012.74  201274.00
1423.5  1.00  1953.87  195387.00
1427.3  1.00  1911.70  191170.33
1431.1  1.00  1880.15  188015.00
1434.9  1.00  1845.15  184515.00
1438.8  1.00  1829.62  182962.33
1442.6  1.00  1817.94  181793.67
1446.4  1.00  1797.90  179790.00
1450.2  1.00  1788.61  178861.00
1454.0  1.00  1785.24  178524.00
1457.8  1.00  1782.79  178279.00
1461.6  1.00  1785.93  178593.00
1465.4  1.00  1799.59  179959.00
1469.2  1.00  1810.15  181014.67
1473.0  1.00  1826.91  182691.33
1476.8  1.00  1856.57  185657.00
1480.7  1.00  1893.09  189309.00
1484.4  1.00  1936.48  193648.00
1488.2  1.00  1989.68  198968.00
1492.0  1.00  2046.60  204660.00
1495.8  1.00  2096.79  209679.33
1499.6  1.00  2133.14  213314.33
1503.4  1.00  2166.73  216673.33
1507.2  1.00  2204.24  220424.00
1510.9  1.00  2221.95  222194.67
1514.7  1.00  2213.07  221307.33
1518.5  1.00  2221.71  222170.67
1522.3  1.00  2261.60  226160.33
1526.0  1.00  2288.93  228893.33
1529.8  1.00  2319.45  231945.33
1533.6  1.00  2370.08  237008.33
1537.3  1.00  2425.81  242581.00
1541.1  1.00  2474.29  247429.00
1544.8  1.00  2522.40  252240.00
1548.6  1.00  2565.87  256587.00
1552.4  1.00  2602.30  260230.33
1556.1  1.00  2641.36  264136.00
1559.9  1.00  2677.29  267729.00
1563.6  1.00  2705.15  270514.67
1567.3  1.00  2745.31  274531.33
1571.1  1.00  2777.25  277724.67
1574.8  1.00  2814.27  281427.33
1578.6  1.00  2852.07  285206.67
1582.3  1.00  2873.97  287396.67
1586.0  1.00  2892.77  289277.00
1589.8  1.00  2911.26  291126.00
1593.5  1.00  2924.03  292403.33
1597.2  1.00  2942.03  294202.67
1600.9  1.00  2954.89  295489.00
1604.7  1.00  2969.30  296930.33
1608.4  1.00  2992.26  299226.33
1612.1  1.00  3002.95  300295.00
1615.8  1.00  3013.11  301311.33
1619.5  1.00  3032.58  303258.33
1623.2  1.00  3043.25  304325.00
1626.9  1.00  3048.49  304849.00
1630.6  1.00  3050.81  305081.33
1634.3  1.00  3060.38  306038.33
1638.0  1.00  3065.18  306518.33
1641.7  1.00  3064.15  306415.33
1645.4  1.00  3058.73  305873.33
1649.1  1.00  3050.06  305006.00
1652.8  1.00  3048.41  304840.67
1656.4  1.00  3035.46  303546.00
1660.1  1.00  3022.57  302257.00
1663.8  1.00  3011.55  301155.00
1667.5  1.00  2999.04  299904.00
1671.1  1.00  2982.29  298229.33
1674.8  1.00  2959.02  295902.33
1678.5  1.00  2945.40  294540.00
1682.1  1.00  2933.27  293327.33
1685.8  1.00  2912.23  291223.00
1689.5  1.00  2886.01  288601.00
1693.1  1.00  2851.90  285190.00
1696.8  1.00  2815.17  281517.00
1700.4  1.00  2772.65  277264.67
1704.0  1.00  2730.86  273086.33
1707.7  1.00  2682.52  268251.67
1711.3  1.00  2619.83  261982.67
1715.0  1.00  2567.14  256714.00
1718.6  1.00  2522.19  252219.00
1722.2  1.00  2475.42  247542.33
1725.9  1.00  2433.91  243391.33
1729.5  1.00  2401.60  240159.67
1733.1  1.00  2379.01  237901.00
1736.7  1.00  2360.61  236061.33
1740.3  1.00  2325.55  232555.00
1744.0  1.00  2303.35  230335.33
1747.5  1.00  2271.45  227145.00
1751.2  1.00  2221.77  222177.00
1754.8  1.00  2176.71  217671.33
1758.4  1.00  2144.01  214401.33
1762.0  1.00  2110.29  211028.67
1765.5  1.00  2076.04  207604.00
1769.1  1.00  2056.80  205680.00
1772.7  1.00  2040.09  204009.33
1776.3  1.00  2021.88  202188.00
1779.9  1.00  1999.20  199919.67
1783.5  1.00  1979.87  197986.67
1787.0  1.00  1959.22  195921.67
1790.6  1.00  1940.16  194016.33
1794.2  1.00  1925.84  192584.00
1797.8  1.00  1921.93  192193.00
1801.3  1.00  1919.31  191931.00
1804.9  1.00  1907.50  190750.00
1808.4  1.00  1901.22  190122.00
1812.0  1.00  1889.64  188964.00
1815.5  1.00  1882.06  188206.00
1819.1  1.00  1868.14  186814.00
1822.6  1.00  1849.92  184992.33
1826.2  1.00  1836.95  183695.33
1829.7  1.00  1817.21  181721.33
1833.2  1.00  1787.38  178737.67
1836.8  1.00  1753.87  175387.33
1840.3  1.00  1729.01  172900.67
1843.8  1.00  1707.00  170699.67
1847.3  1.00  1678.72  167872.00
1850.8  1.00  1638.34  163833.67
1854.3  1.00  1588.89  158888.67
1857.8  1.00  1547.87  154786.67
1861.3  1.00  1499.36  149936.33
1864.8  1.00  1432.52  143251.67
1868.3  1.00  1349.03  134903.33
1871.8  1.00  1231.36  123136.00
1875.3  1.00  1142.20  114220.33
1878.8  1.00  1054.40  105440.00
1882.3  1.00  958.24  95824.00
1885.8  1.00  883.41  88341.00
1889.3  1.00  814.64  81464.00
1892.7  1.00  770.30  77030.00
1896.2  1.00  720.31  72030.67
1899.7  1.00  691.72  69172.33
1903.1  1.00  711.48  71148.00
1906.6  1.00  754.21  75421.00
1910.0  1.00  833.92  83392.00
1913.5  1.00  890.91  89091.00
1917.0  1.00  1058.52  105852.00
1920.4  1.00  1263.49  126348.67
1923.8  1.00  1336.51  133651.33
1871.2  1.00  0.00  0.00
1873.9  1.00  322.15  32215.00
1876.7  1.00  1298.05  129805.00
1879.5  1.00  94.58  9458.33
1882.3  1.00  451.08  45108.33
1885.1  1.00  1034.40  103440.00
1887.8  1.00  0.00  0.00
1890.6  1.00  233.90  23390.00
1893.4  1.00  806.67  80666.67
1896.2  1.00  0.00  0.00
1898.9  1.00  256.93  25693.33
1901.7  1.00  587.83  58783.33
1904.5  1.00  52.90  5290.00
1907.2  1.00  190.00  19000.00
1910.0  1.00  605.27  60526.67
1912.7  1.00  120.10  12010.00
1915.5  1.00  225.80  22580.00
1918.2  1.00  536.75  53675.00
1921.0  1.00  137.53  13753.33
1923.7  1.00  233.45  23345.00
1926.5  1.00  521.07  52106.67
1929.2  1.00  128.27  12826.67
1932.0  1.00  284.40  28440.00
1934.7  1.00  531.53  53153.33
1937.4  1.00  124.07  12406.67
1940.2  1.00  338.07  33806.67
1942.9  1.00  578.55  57855.00
1945.6  1.00  181.20  18120.00
1948.3  1.00  300.83  30083.33
1951.1  1.00  541.80  54180.00
1953.8  1.00  150.00  15000.00
1956.5  1.00  299.50  29950.00
1959.2  1.00  568.10  56810.00
1961.9  1.00  208.60  20860.00
1964.6  1.00  386.75  38675.00
1967.3  1.00  623.00  62300.00
1970.0  1.00  207.20  20720.00
1972.8  1.00  382.42  38241.67
1975.5  1.00  614.60  61460.00
1978.2  1.00  204.40  20440.00
1980.9  1.00  349.80  34980.00
1983.5  1.00  668.92  66891.67
1986.2  1.00  261.90  26190.00
1988.9  1.00  378.30  37830.00
1991.6  1.00  637.27  63726.67
1994.3  1.00  259.95  25995.00
1997.0  1.00  403.67  40366.67
1999.7  1.00  660.48  66048.33
2002.3  1.00  287.67  28766.67
2005.0  1.00  489.03  48903.33
2007.7  1.00  716.67  71666.67
2010.4  1.00  285.50  28550.00
2013.0  1.00  426.75  42675.00
2015.7  1.00  625.17  62516.67
2018.4  1.00  340.40  34040.00
2021.0  1.00  510.00  51000.00
2023.7  1.00  706.67  70666.67
2026.4  1.00  338.00  33800.00
2029.0  1.00  506.10  50610.00
2031.7  1.00  704.17  70416.67
2034.3  1.00  366.17  36616.67
2037.0  1.00  506.70  50670.00
2039.6  1.00  759.60  75960.00
2042.3  1.00  421.25  42125.00
2044.9  1.00  504.90  50490.00
2047.5  1.00  701.25  70125.00
2050.2  1.00  392.00  39200.00
2052.8  1.00  532.00  53200.00
2055.4  1.00  728.43  72843.33
2058.1  1.00  336.00  33600.00
2060.7  1.00  503.10  50310.00
2063.3  1.00  780.27  78026.67
2065.9  1.00  418.75  41875.00
2068.6  1.00  530.42  53041.67
2071.2  1.00  753.30  75330.00
2073.8  1.00  363.78  36378.33
2076.4  1.00  505.20  50520.00
2079.0  1.00  758.70  75870.00
2081.6  1.00  422.00  42200.00
2084.2  1.00  564.33  56433.33
2086.8  1.00  791.93  79193.33
2089.4  1.00  425.50  42550.00
2092.1  1.00  538.33  53833.33
2094.7  1.00  791.00  79100.00
2097.2  1.00  453.33  45333.33
2099.8  1.00  569.33  56933.33
2102.4  1.00  796.13  79613.33
2105.0  1.00  427.50  42750.00
2107.6  1.00  541.18  54118.33
2110.2  1.00  767.25  76725.00
2112.8  1.00  400.87  40086.67
2115.3  1.00  577.33  57733.33
2117.9  1.00  870.50  87050.00
2120.5  1.00  466.40  46640.00
2123.1  1.00  585.00  58500.00
2125.6  1.00  819.93  81993.33
2128.2  1.00  409.73  40973.33
2130.8  1.00  585.00  58500.00
2133.3  1.00  850.67  85066.67
2135.9  1.00  470.67  47066.67
2138.4  1.00  589.33  58933.33
2141.0  1.00  822.73  82273.33
2143.6  1.00  498.38  49838.33
2146.1  1.00  646.43  64643.33
2148.7  1.00  851.63  85163.33
2151.2  1.00  410.67  41066.67
2153.8  1.00  588.67  58866.67
2156.3  1.00  886.00  88600.00
2158.8  1.00  443.00  44300.00
2161.4  1.00  589.67  58966.67
2163.9  1.00  796.05  79605.00
2166.4  1.00  443.50  44350.00
2169.0  1.00  591.33  59133.33
2171.5  1.00  857.43  85743.33
2174.0  1.00  446.25  44625.00
2176.5  1.00  568.10  56810.00
2179.1  1.00  843.27  84326.67
2181.6  1.00  517.08  51708.33
2184.1  1.00  646.80  64680.00
2186.6  1.00  878.73  87873.33
2189.1  1.00  385.20  38520.00
2191.6  1.00  522.67  52266.67
2194.1  1.00  863.63  86363.33
2196.6  1.00  407.60  40760.00
2199.2  1.00  523.25  52325.00
2201.7  1.00  823.78  82378.33
2204.1  1.00  329.85  32985.00
2206.6  1.00  484.90  48490.00
2209.1  1.00  832.70  83270.00
2211.6  1.00  342.60  34260.00
2214.1  1.00  532.23  53223.33
2216.6  1.00  873.62  87361.67
2219.1  1.00  379.83  37983.33
2221.6  1.00  571.00  57100.00
2224.0  1.00  800.10  80010.00
2226.5  1.00  304.40  30440.00
2229.0  1.00  532.93  53293.33
2231.5  1.00  842.60  84260.00
2233.9  1.00  269.38  26938.33
2236.4  1.00  463.20  46320.00
2238.9  1.00  775.00  77500.00
2241.3  1.00  233.20  23320.00
2243.8  1.00  427.53  42753.33
2246.2  1.00  814.10  81410.00
2248.7  1.00  269.97  26996.67
2251.2  1.00  422.77  42276.67
2253.6  1.00  652.80  65280.00
2256.1  1.00  230.40  23040.00
2258.5  1.00  461.00  46100.00
2260.9  1.00  690.30  69030.00
2263.4  1.00  230.30  23030.00
2265.8  1.00  384.67  38466.67
2268.3  1.00  654.22  65421.67
2270.7  1.00  115.15  11515.00
2273.1  1.00  230.10  23010.00
2275.6  1.00  691.20  69120.00
2278.0  1.00  115.30  11530.00
2280.4  1.00  307.87  30786.67
2282.8  1.00  619.47  61946.67
2285.3  1.00  116.65  11665.00
2287.7  1.00  312.40  31240.00
2290.1  1.00  672.07  67206.67
2292.5  1.00  79.37  7936.67
2294.9  1.00  237.10  23710.00
2297.3  1.00  593.25  59325.00
2299.7  1.00  118.45  11845.00
2302.1  1.00  274.98  27498.33
2304.5  1.00  509.60  50960.00
2306.9  1.00  78.40  7840.00
2309.3  1.00  274.28  27428.33
2311.7  1.00  549.50  54950.00
2314.1  1.00  78.77  7876.67
2316.5  1.00  236.40  23640.00
2318.9  1.00  551.83  55183.33
2321.3  1.00  0.00  0.00
2323.7  1.00  199.67  19966.67
2326.1  1.00  564.20  56420.00
2328.4  1.00  81.37  8136.67
2330.8  1.00  204.50  20450.00
2333.2  1.00  535.38  53538.33
2335.6  1.00  41.52  4151.67
2337.9  1.00  208.67  20866.67
2340.3  1.00  503.80  50380.00
2342.7  1.00  0.00  0.00
2345.0  1.00  169.87  16986.67
2347.4  1.00  552.50  55250.00
2349.7  1.00  42.72  4271.67
2352.1  1.00  214.42  21441.67
2354.4  1.00  429.83  42983.33
2356.8  1.00  -43.17  -4316.67
2359.2  1.00  130.00  13000.00
2361.5  1.00  479.97  47996.67
2363.8  1.00  0.00  0.00
2366.2  1.00  176.53  17653.33
2368.5  1.00  534.00  53400.00
2370.9  1.00  0.00  0.00
2373.2  1.00  134.90  13490.00
2375.5  1.00  452.50  45250.00
2377.9  1.00  0.00  0.00
2380.2  1.00  45.82  4581.67
2382.5  1.00  459.50  45950.00
2384.8  1.00  0.00  0.00
2387.2  1.00  46.88  4688.33
2389.5  1.00  424.95  42495.00
2391.8  1.00  0.00  0.00
2394.1  1.00  191.93  19193.33
2396.4  1.00  435.45  43545.00
2398.7  1.00  -48.72  -4871.67
2401.0  1.00  0.00  0.00
2403.3  1.00  398.40  39840.00
2405.6  1.00  0.00  0.00
2407.9  1.00  0.00  0.00
2410.2  1.00  401.07  40106.67
2412.5  1.00  0.00  0.00
2414.8  1.00  0.00  0.00
2417.1  1.00  412.93  41293.33
2419.4  1.00  0.00  0.00
2421.7  1.00  0.00  0.00
2424.0  1.00  422.67  42266.67
2426.2  1.00  -53.50  -5350.00
2428.5  1.00  0.00  0.00
2430.8  1.00  436.00  43600.00
2433.1  1.00  0.00  0.00
2435.4  1.00  55.95  5595.00
2437.6  1.00  503.55  50355.00
2439.9  1.00  -112.30  -11230.00
2442.2  1.00  0.00  0.00
2444.4  1.00  516.90  51690.00
2446.7  1.00  -116.80  -11680.00
2448.9  1.00  0.00  0.00
2451.2  1.00  357.60  35760.00
2453.4  1.00  -60.27  -6026.67
2455.7  1.00  0.00  0.00
2457.9  1.00  427.35  42735.00
2460.2  1.00  -123.30  -12330.00
2462.4  1.00  0.00  0.00
2464.7  1.00  252.33  25233.33
2466.9  1.00  -128.40  -12840.00
2469.2  1.00  64.82  6481.67
2471.4  1.00  459.55  45955.00
2473.6  1.00  -66.95  -6695.00
2475.9  1.00  0.00  0.00
2478.1  1.00  409.90  40990.00
2480.3  1.00  -208.85  -20885.00
2482.5  1.00  0.00  0.00
2484.8  1.00  582.53  58253.33
2487.0  1.00  -74.07  -7406.67
2489.2  1.00  0.00  0.00
2491.4  1.00  461.10  46110.00
2493.6  1.00  -156.77  -15676.67
2495.8  1.00  0.00  0.00
2498.0  1.00  324.27  32426.67
2500.2  1.00  -252.75  -25275.00
2502.4  1.00  0.00  0.00
2504.6  1.00  375.60  37560.00
2506.8  1.00  0.00  0.00
