/*** Spectra Vista SIG Data ***/
name= GT.sig
comm= Resampled spectral data SIG file reprocesed for matching/overlap;Averaged Ref/Tar of files: GD2T1,GD2T2,GD2T3
data=
346.0  509.60  159.78  31.35
356.0  828.71  183.35  22.13
366.0  1135.02  201.40  17.74
376.0  1579.37  221.88  14.05
386.0  1995.77  216.58  10.85
396.0  2559.82  276.82  10.81
406.0  3091.33  273.54  8.85
416.0  3756.05  345.64  9.20
426.0  4330.84  383.44  8.85
436.0  5235.06  448.03  8.56
446.0  6088.18  563.60  9.26
456.0  6942.22  692.02  9.97
466.0  8223.74  861.36  10.47
476.0  9370.48  1011.87  10.80
486.0  10269.91  1154.65  11.24
496.0  11746.45  1549.32  13.19
506.0  13053.58  2301.26  17.63
516.0  13946.28  3405.77  24.42
526.0  15576.79  4993.56  32.06
536.0  17486.02  6497.05  37.16
546.0  19041.40  7566.76  39.74
556.0  19524.52  7869.67  40.31
566.0  20999.31  8136.72  38.75
576.0  23067.50  8210.98  35.60
586.0  24676.47  8152.58  33.04
596.0  26082.33  8149.86  31.25
606.0  26687.61  7906.06  29.62
616.0  28173.19  7692.69  27.30
626.0  30688.38  7893.19  25.72
636.0  30262.72  7789.27  25.74
646.0  30879.36  6663.76  21.58
656.0  30774.24  5401.98  17.55
666.0  32506.69  4561.42  14.03
676.0  34219.05  4390.59  12.83
686.0  36429.62  6486.91  17.81
696.0  37023.78  13433.32  36.28
706.0  37160.43  21253.38  57.19
716.0  36697.84  26046.36  70.98
726.0  35913.80  28440.80  79.19
736.0  35729.66  29430.49  82.37
746.0  37736.85  32004.83  84.81
756.0  38321.00  32974.87  86.05
766.0  39510.69  34566.60  87.49
776.0  40059.59  35487.64  88.59
786.0  40131.74  35811.95  89.24
796.0  39280.82  35230.14  89.69
806.0  38244.14  34441.13  90.06
816.0  38036.29  34400.26  90.44
826.0  37709.30  34015.26  90.20
836.0  38038.49  34076.62  89.58
846.0  38692.27  34876.98  90.14
856.0  39178.52  35522.19  90.67
866.0  39402.80  35703.48  90.61
876.0  39579.78  35639.21  90.04
886.0  39738.64  35458.11  89.23
896.0  39527.49  34660.36  87.69
906.0  39437.50  34137.33  86.56
916.0  39115.31  33258.00  85.03
926.0  39024.38  32094.37  82.24
936.0  39929.50  31304.36  78.40
946.0  40662.60  30128.46  74.09
956.0  41393.84  28539.93  68.95
966.0  41958.59  28034.79  66.82
976.0  42665.70  28361.82  66.47
986.0  43514.08  26503.25  60.91
996.0  44198.08  27786.07  62.87
1006.0  44152.39  28640.88  64.87
1016.0  44379.04  29836.97  67.23
1026.0  44401.68  30955.24  69.72
1036.0  44210.66  31800.32  71.93
1046.0  44505.96  32994.84  74.14
1056.0  44664.21  33910.88  75.92
1066.0  44609.35  34329.35  76.96
1076.0  44397.60  34285.64  77.22
1086.0  44469.15  34102.56  76.69
1096.0  44486.78  33547.62  75.41
1106.0  44367.02  32787.33  73.90
1116.0  44078.91  31746.44  72.02
1126.0  43954.95  30323.39  68.99
1136.0  43902.29  27724.98  63.15
1146.0  43783.94  24698.44  56.41
1156.0  43564.50  22787.99  52.31
1166.0  43347.15  22056.21  50.88
1176.0  43236.47  21757.65  50.32
1186.0  43266.58  21568.36  49.85
1196.0  42749.21  21178.38  49.54
1206.0  42347.95  21014.18  49.62
1216.0  42062.65  21063.41  50.08
1226.0  41760.57  21214.17  50.80
1236.0  41549.33  21385.73  51.47
1246.0  41291.98  21473.02  52.00
1256.0  41002.94  21502.57  52.44
1266.0  40714.26  21418.39  52.61
1276.0  40752.77  21361.98  52.42
1286.0  40729.17  21091.43  51.78
1296.0  40419.20  20470.98  50.65
1306.0  39889.01  19492.32  48.87
1316.0  39301.71  18268.00  46.48
1326.0  38739.73  16896.23  43.61
1336.0  38152.03  15507.13  40.65
1346.0  37634.91  14301.74  38.00
1356.0  36932.28  13193.73  35.72
1366.0  36373.67  12167.78  33.45
1376.0  36238.22  10964.46  30.26
1386.0  35907.93  9126.10  25.42
1396.0  35482.45  7259.28  20.46
1406.0  35048.23  5954.87  16.99
1416.0  34958.68  5244.28  15.00
1426.0  34812.11  4893.52  14.06
1436.0  34651.53  4714.81  13.61
1446.0  34455.26  4621.84  13.41
1456.0  34203.50  4598.34  13.44
1466.0  34017.99  4645.11  13.65
1476.0  33677.47  4780.77  14.20
1486.0  33445.44  5041.04  15.07
1496.0  33136.51  5359.97  16.18
1506.0  32878.23  5604.35  17.05
1516.0  32532.33  5808.15  17.85
1526.0  32200.64  6008.06  18.66
1536.0  31935.91  6239.93  19.54
1546.0  31612.44  6452.04  20.41
1556.0  31368.42  6671.37  21.27
1566.0  31082.67  6925.88  22.28
1576.0  30694.72  7139.84  23.26
1586.0  30400.45  7290.23  23.98
1596.0  30038.76  7398.93  24.63
1606.0  29713.74  7505.79  25.26
1616.0  29361.62  7593.97  25.86
1626.0  29041.80  7667.05  26.40
1636.0  28665.08  7698.31  26.86
1646.0  28273.39  7693.28  27.21
1656.0  27876.35  7633.71  27.38
1666.0  27464.92  7551.78  27.50
1676.0  27087.15  7442.93  27.48
1686.0  27082.21  7363.21  27.19
1696.0  26749.12  7175.99  26.83
1706.0  26324.28  6926.31  26.31
1716.0  25713.57  6602.98  25.68
1726.0  25342.79  6330.11  24.98
1736.0  25046.96  6138.26  24.51
1746.0  24724.28  5950.64  24.07
1756.0  24256.84  5682.14  23.42
1766.0  23870.66  5454.60  22.85
1776.0  23641.10  5332.68  22.56
1786.0  23371.07  5215.71  22.32
1796.0  23059.77  5123.52  22.22
1806.0  22801.89  5067.51  22.22
1816.0  22515.30  5003.36  22.22
1826.0  22114.90  4897.29  22.14
1836.0  21613.42  4750.59  21.98
1846.0  21215.40  4597.13  21.67
1856.0  20774.86  4409.72  21.23
1866.0  20736.29  3933.94  18.97
1876.0  20407.50  3122.30  15.30
1886.0  20155.03  2506.84  12.44
1896.0  19660.33  2105.48  10.71
1906.0  18631.25  1267.58  6.80
1916.0  18318.88  1198.35  6.54
1926.0  18038.46  1169.90  6.49
1936.0  17863.51  1161.10  6.50
1946.0  17797.41  1190.42  6.69
1956.0  17592.99  1222.15  6.95
1966.0  17571.94  1292.97  7.36
1976.0  17404.06  1340.46  7.70
1986.0  17183.68  1390.10  8.09
1996.0  16906.31  1437.91  8.51
2006.0  16756.31  1493.90  8.92
2016.0  16485.40  1539.99  9.34
2026.0  16206.02  1565.74  9.66
2036.0  15962.47  1600.04  10.02
2046.0  15735.40  1634.88  10.39
2056.0  15460.05  1656.29  10.71
2066.0  15198.46  1678.34  11.04
2076.0  14951.14  1690.13  11.30
2086.0  14836.37  1734.25  11.69
2096.0  14558.23  1762.72  12.11
2106.0  14302.47  1780.48  12.45
2116.0  14222.98  1823.98  12.82
2126.0  14069.19  1868.19  13.28
2136.0  13798.40  1858.68  13.47
2146.0  13445.76  1853.84  13.79
2156.0  13239.56  1847.48  13.95
2166.0  12983.56  1839.88  14.17
2176.0  12771.15  1831.62  14.34
2186.0  12627.18  1820.61  14.42
2196.0  12513.18  1813.77  14.49
2206.0  12456.23  1812.08  14.55
2216.0  12351.60  1805.71  14.62
2226.0  12205.08  1766.49  14.47
2236.0  12132.89  1705.81  14.06
2246.0  11882.62  1613.80  13.58
2256.0  11773.90  1557.66  13.23
2266.0  11670.88  1489.27  12.76
2276.0  11528.71  1431.89  12.42
2286.0  11463.55  1368.25  11.94
2296.0  11358.16  1291.54  11.37
2306.0  11039.70  1201.81  10.89
2316.0  10655.77  1168.49  10.97
2326.0  10608.43  1152.58  10.86
2336.0  10592.93  1123.46  10.61
2346.0  10498.36  1051.27  10.01
2356.0  10259.04  1020.16  9.94
2366.0  10158.26  977.77  9.63
2376.0  9929.58  950.40  9.57
2386.0  9815.44  886.93  9.04
2396.0  9663.63  900.69  9.32
2406.0  9510.88  819.05  8.61
2416.0  9304.41  796.13  8.56
2426.0  9217.28  731.58  7.94
2436.0  8983.54  728.88  8.11
2446.0  8817.11  675.19  7.66
2456.0  8689.94  684.45  7.88
2466.0  8452.21  623.62  7.38
2476.0  8254.64  555.63  6.73
2486.0  8114.28  531.77  6.55
2496.0  7981.99  522.46  6.55
2506.0  8320.96  565.44  6.80
